"sep=	"
Shimmer__TimestampSync_Unix_CAL	Shimmer__Accel_LN_X_CAL	Shimmer__Accel_LN_Y_CAL	Shimmer__Accel_LN_Z_CAL	Shimmer__GSR_Range_CAL	Shimmer__GSR_Skin_Conductance_CAL	Shimmer__GSR_Skin_Resistance_CAL	Shimmer__Gyro_X_CAL	Shimmer__Gyro_Y_CAL	Shimmer__Gyro_Z_CAL	Shimmer__Mag_X_CAL	Shimmer__Mag_Y_CAL	Shimmer__Mag_Z_CAL	Shimmer__PPG_A13_CAL	Shimmer__PPG_IBI_CAL	Shimmer__PPGtoHR_CAL	
ms	m/(s^2)	m/(s^2)	m/(s^2)	no_units	uS	kOhms	deg/s	deg/s	deg/s	local_flux	local_flux	local_flux	mV	ms	BPM	
1.6981535739030105E12	4.33695652173913	1.6195652173913042	10.934782608695652	3.0	0.3438783438783439	2908.005164622337	-0.1205868320610687	0.9134064885496183	0.45753816793893126	0.17691154422788605	-0.24887556221889054	-0.5952023988005997	1400.7326007326005	-1.0	-1.0	
1.6981535739108225E12	4.326086956521739	1.6195652173913042	10.945652173913043	3.0	0.3434343434343434	2911.764705882353	0.0802719465648855	0.8927719465648855	-0.016459923664122137	0.14842578710644677	-0.2593703148425787	-0.6026986506746627	1397.8021978021977	-1.0	-1.0	
1.6981535739186345E12	4.33695652173913	1.6195652173913042	10.934782608695652	3.0	0.3434343434343434	2911.764705882353	-0.11784351145038167	0.7789837786259541	0.428912213740458	0.17691154422788605	-0.2338830584707646	-0.5997001499250375	1394.8717948717947	-1.0	-1.0	
1.6981535739264465E12	4.33695652173913	1.6304347826086956	10.91304347826087	3.0	0.3438783438783439	2908.005164622337	0.23580629770992365	0.40589217557251905	0.7324666030534351	0.17691154422788605	-0.2338830584707646	-0.5997001499250375	1390.4761904761904	-1.0	-1.0	
1.6981535739342585E12	4.315217391304348	1.6195652173913042	10.902173913043478	3.0	0.3438783438783439	2908.005164622337	-0.06929866412213741	0.4029103053435114	0.3475667938931298	0.1649175412293853	-0.24587706146926536	-0.6041979010494752	1387.5457875457876	-1.0	-1.0	
1.6981535739420706E12	4.315217391304348	1.6304347826086956	10.902173913043478	3.0	0.3434343434343434	2911.764705882353	-0.02075381679389313	-0.061068702290076333	0.33158396946564883	0.17991004497751123	-0.2383808095952024	-0.6101949025487257	1383.150183150183	-1.0	-1.0	
1.6981535739498828E12	4.326086956521739	1.6195652173913042	10.92391304347826	3.0	0.34432234432234426	2904.2553191489365	-0.23282442748091603	-0.033635496183206104	0.2701574427480916	0.17691154422788605	-0.24137931034482757	-0.6026986506746627	1378.7545787545787	-1.0	-1.0	
1.6981535739576948E12	4.326086956521739	1.6304347826086956	10.945652173913043	3.0	0.34432234432234426	2904.2553191489365	-0.013955152671755724	-0.14193702290076335	0.4198473282442748	0.17691154422788605	-0.24137931034482757	-0.6026986506746627	1377.2893772893772	-1.0	-1.0	
1.6981535739655068E12	4.33695652173913	1.641304347826087	10.967391304347826	3.0	0.3438783438783439	2908.005164622337	-0.0580868320610687	-0.24689885496183206	0.11247614503816794	0.17091454272863568	-0.2368815592203898	-0.608695652173913	1378.021978021978	-1.0	-1.0	
1.6981535739733188E12	4.358695652173913	1.6521739130434783	10.934782608695652	3.0	0.3438783438783439	2908.005164622337	-0.20956583969465647	-0.19775763358778625	0.14181774809160305	0.18440779610194902	-0.24137931034482757	-0.6071964017991004	1377.2893772893772	-1.0	-1.0	
1.6981535739811309E12	4.369565217391305	1.6304347826086956	10.956521739130434	3.0	0.3438783438783439	2908.005164622337	-0.4819895038167939	-0.16197519083969464	-0.08945610687022901	0.18140929535232383	-0.2383808095952024	-0.616191904047976	1377.2893772893772	-1.0	-1.0	
1.6981535739889429E12	4.380434782608695	1.6304347826086956	10.92391304347826	3.0	0.34432234432234426	2904.2553191489365	-0.2927003816793893	0.3014074427480916	-0.16495706106870228	0.17841079460269865	-0.24587706146926536	-0.6131934032983508	1379.4871794871794	-1.0	-1.0	
1.6981535739967551E12	4.369565217391305	1.6195652173913042	10.902173913043478	3.0	0.3438783438783439	2908.005164622337	-0.7027671755725191	0.5331583969465649	-0.18022423664122136	0.17841079460269865	-0.24587706146926536	-0.6131934032983508	1381.6849816849815	-1.0	-1.0	
1.6981535740045671E12	4.326086956521739	1.6304347826086956	10.91304347826087	3.0	0.3438783438783439	2908.005164622337	-0.38895515267175573	0.7786259541984732	-0.34720896946564883	0.17541229385307347	-0.2338830584707646	-0.6056971514242878	1386.080586080586	-1.0	-1.0	
1.6981535740123792E12	4.369565217391305	1.608695652173913	10.945652173913043	3.0	0.3438783438783439	2908.005164622337	-0.4447757633587786	0.7297232824427481	-0.6826097328244275	0.17841079460269865	-0.24137931034482757	-0.6206896551724138	1384.6153846153845	-1.0	-1.0	
1.6981535740201912E12	4.358695652173913	1.608695652173913	10.934782608695652	3.0	0.34432234432234426	2904.2553191489365	-0.7619274809160305	0.8463740458015266	-0.2949666030534351	0.1679160419790105	-0.24287856071964017	-0.6056971514242878	1386.080586080586	-1.0	-1.0	
1.6981535740280032E12	4.358695652173913	1.608695652173913	10.92391304347826	3.0	0.3438783438783439	2908.005164622337	-0.570729961832061	0.9614742366412213	-0.3529341603053435	0.17841079460269865	-0.24737631184407796	-0.5997001499250375	1389.0109890109889	-1.0	-1.0	
1.6981535740358152E12	4.33695652173913	1.5978260869565217	10.92391304347826	3.0	0.3438783438783439	2908.005164622337	-0.3654580152671756	0.8016459923664122	-0.22519083969465647	0.17841079460269865	-0.24737631184407796	-0.5997001499250375	1390.4761904761904	-1.0	-1.0	
1.6981535740436274E12	4.326086956521739	1.5869565217391304	10.934782608695652	3.0	0.3438783438783439	2908.005164622337	-0.6056774809160305	0.9303435114503816	-0.3438692748091603	0.17991004497751123	-0.239880059970015	-0.6116941529235382	1393.4065934065934	-1.0	-1.0	
1.6981535740514395E12	4.326086956521739	1.5652173913043477	10.891304347826086	3.0	0.3438783438783439	2908.005164622337	-0.2319895038167939	0.6603053435114503	-0.20026240458015265	0.17841079460269865	-0.2383808095952024	-0.6071964017991004	1393.4065934065934	-1.0	-1.0	
1.6981535740592515E12	4.293478260869565	1.5869565217391304	10.92391304347826	3.0	0.3438783438783439	2908.005164622337	-0.3342080152671756	0.22614503816793893	0.14014790076335878	0.17541229385307347	-0.23238380809595202	-0.5982008995502248	1394.8717948717947	-1.0	-1.0	
1.6981535740670635E12	4.326086956521739	1.5978260869565217	10.92391304347826	3.0	0.3438783438783439	2908.005164622337	-0.573831106870229	0.5270753816793893	-0.16436068702290077	0.15142428785607195	-0.24737631184407796	-0.5997001499250375	1397.8021978021977	-1.0	-1.0	
1.6981535740748755E12	4.315217391304348	1.608695652173913	10.934782608695652	3.0	0.3434343434343434	2911.764705882353	-0.18630725190839695	0.4774570610687023	0.2823234732824427	0.15142428785607195	-0.24737631184407796	-0.5997001499250375	1398.5347985347985	-1.0	-1.0	
1.6981535740826877E12	4.271739130434782	1.6195652173913042	10.945652173913043	3.0	0.3434343434343434	2911.764705882353	-0.059279580152671756	0.44429866412213737	0.06882156488549618	0.17391304347826086	-0.24287856071964017	-0.6116941529235382	1404.3956043956043	-1.0	-1.0	
1.6981535740904998E12	4.293478260869565	1.6195652173913042	10.945652173913043	3.0	0.3438783438783439	2908.005164622337	-0.2254293893129771	0.40935114503816794	-0.05104961832061068	0.17541229385307347	-0.24287856071964017	-0.6101949025487257	1407.3260073260071	-1.0	-1.0	
1.6981535740983118E12	4.304347826086956	1.6195652173913042	10.945652173913043	3.0	0.3438783438783439	2908.005164622337	-0.17724236641221372	0.23723759541984732	0.1815362595419847	0.17241379310344826	-0.25337331334332835	-0.6056971514242878	1410.2564102564102	-1.0	-1.0	
1.6981535741061238E12	4.304347826086956	1.6195652173913042	10.934782608695652	3.0	0.3438783438783439	2908.005164622337	-0.4174618320610687	0.42032442748091603	0.29150763358778625	0.17241379310344826	-0.22638680659670163	-0.6041979010494752	1412.4542124542124	-1.0	-1.0	
1.6981535741139358E12	4.304347826086956	1.5978260869565217	10.92391304347826	3.0	0.3438783438783439	2908.005164622337	-0.2924618320610687	0.38573473282442744	0.04735209923664122	0.17241379310344826	-0.22638680659670163	-0.6041979010494752	1413.9194139194137	-1.0	-1.0	
1.6981535741217478E12	4.3478260869565215	1.6195652173913042	10.902173913043478	3.0	0.3438783438783439	2908.005164622337	-0.42724236641221375	0.33611641221374045	0.1252385496183206	0.17091454272863568	-0.2578710644677661	-0.6056971514242878	1415.3846153846152	-1.0	-1.0	
1.69815357412956E12	4.326086956521739	1.6195652173913042	10.956521739130434	3.0	0.34432234432234426	2904.2553191489365	-0.3462547709923664	0.10102576335877862	-0.03995706106870229	0.17541229385307347	-0.239880059970015	-0.6026986506746627	1413.9194139194137	-1.0	-1.0	
1.698153574137372E12	4.326086956521739	1.608695652173913	10.945652173913043	3.0	0.3434343434343434	2911.764705882353	-0.40124045801526714	0.14336832061068702	0.3280057251908397	0.17391304347826086	-0.2383808095952024	-0.608695652173913	1410.2564102564102	-1.0	-1.0	
1.698153574145184E12	4.315217391304348	1.5869565217391304	10.92391304347826	3.0	0.3438783438783439	2908.005164622337	-0.21254770992366412	0.12201812977099236	0.03924141221374046	0.16941529235382308	-0.2383808095952024	-0.6071964017991004	1409.5238095238094	-1.0	-1.0	
1.698153574152996E12	4.326086956521739	1.608695652173913	10.934782608695652	3.0	0.3434343434343434	2911.764705882353	0.00536736641221374	0.22483301526717556	-0.03458969465648855	0.16941529235382308	-0.2383808095952024	-0.6071964017991004	1407.3260073260071	-1.0	-1.0	
1.698153574160808E12	4.326086956521739	1.576086956521739	10.956521739130434	3.0	0.34432234432234426	2904.2553191489365	-0.26979961832061067	0.20646469465648853	0.012881679389312976	0.17391304347826086	-0.25487256371814093	-0.5997001499250375	1408.058608058608	-1.0	-1.0	
1.69815357416862E12	4.293478260869565	1.5978260869565217	10.92391304347826	3.0	0.3438783438783439	2908.005164622337	-0.512881679389313	0.03959923664122137	0.013835877862595419	0.16941529235382308	-0.22638680659670163	-0.5937031484257871	1405.128205128205	-1.0	-1.0	
1.6981535741764324E12	4.315217391304348	1.576086956521739	10.945652173913043	3.0	0.3438783438783439	2908.005164622337	-0.17402194656488548	0.44072041984732824	-0.3665314885496183	0.17091454272863568	-0.24737631184407796	-0.6026986506746627	1402.197802197802	-1.0	-1.0	
1.6981535741842444E12	4.304347826086956	1.608695652173913	10.92391304347826	3.0	0.3438783438783439	2908.005164622337	-0.29508587786259544	0.36343034351145037	-0.08826335877862596	0.18140929535232383	-0.25037481259370314	-0.6041979010494752	1398.5347985347985	-1.0	-1.0	
1.6981535741920564E12	4.326086956521739	1.6195652173913042	10.934782608695652	3.0	0.3438783438783439	2908.005164622337	-0.33850190839694655	0.3641459923664122	-0.19680343511450382	0.18140929535232383	-0.25037481259370314	-0.6041979010494752	1394.8717948717947	-1.0	-1.0	
1.6981535741998684E12	4.304347826086956	1.6195652173913042	10.92391304347826	3.0	0.3438783438783439	2908.005164622337	-0.3641459923664122	0.2567986641221374	-0.14658874045801526	0.16941529235382308	-0.24587706146926536	-0.5952023988005997	1392.6739926739926	-1.0	-1.0	
1.6981535742076804E12	4.293478260869565	1.608695652173913	10.92391304347826	3.0	0.3438783438783439	2908.005164622337	-0.4076812977099237	0.5170562977099237	0.03542461832061069	0.17391304347826086	-0.24887556221889054	-0.5907046476761619	1389.7435897435896	-1.0	-1.0	
1.6981535742154927E12	4.326086956521739	1.576086956521739	10.945652173913043	3.0	0.3438783438783439	2908.005164622337	-0.18857347328244273	0.2717080152671756	0.05116889312977099	0.17691154422788605	-0.25337331334332835	-0.5877061469265367	1387.5457875457876	-1.0	-1.0	
1.6981535742233047E12	4.3478260869565215	1.6195652173913042	10.934782608695652	3.0	0.3438783438783439	2908.005164622337	-0.17032442748091603	0.2254293893129771	-0.1920324427480916	0.15892053973013492	-0.24137931034482757	-0.6026986506746627	1386.8131868131868	-1.0	-1.0	
1.6981535742311167E12	4.326086956521739	1.5869565217391304	10.91304347826087	3.0	0.3434343434343434	2911.764705882353	-0.0739503816793893	0.03995706106870229	0.14479961832061067	0.15892053973013492	-0.24137931034482757	-0.6026986506746627	1383.8827838827838	-1.0	-1.0	
1.6981535742389287E12	4.293478260869565	1.5869565217391304	10.91304347826087	3.0	0.3438783438783439	2908.005164622337	-0.010376908396946565	0.006321564885496183	-0.22375954198473283	0.1679160419790105	-0.24437781109445278	-0.6116941529235382	1387.5457875457876	-1.0	-1.0	
1.6981535742467407E12	4.315217391304348	1.6195652173913042	10.945652173913043	3.0	0.3438783438783439	2908.005164622337	-0.1901240458015267	-0.13311068702290077	-0.3907442748091603	0.17391304347826086	-0.2368815592203898	-0.6071964017991004	1388.278388278388	-1.0	-1.0	
1.6981535742545527E12	4.304347826086956	1.5869565217391304	10.934782608695652	3.0	0.34432234432234426	2904.2553191489365	-0.11104484732824427	-0.21147423664122136	0.10174141221374046	0.1664167916041979	-0.24287856071964017	-0.6131934032983508	1390.4761904761904	-1.0	-1.0	
1.698153574262365E12	4.326086956521739	1.5978260869565217	10.92391304347826	3.0	0.3434343434343434	2911.764705882353	-0.16829675572519084	-0.21493320610687022	-0.23330152671755724	0.17391304347826086	-0.24287856071964017	-0.5982008995502248	1393.4065934065934	-1.0	-1.0	
1.698153574270177E12	4.315217391304348	1.608695652173913	10.902173913043478	3.0	0.3438783438783439	2908.005164622337	-0.025763358778625952	-0.1273854961832061	-0.06214217557251908	0.17391304347826086	-0.24287856071964017	-0.5982008995502248	1397.8021978021977	-1.0	-1.0	
1.698153574277989E12	4.326086956521739	1.576086956521739	10.91304347826087	3.0	0.3438783438783439	2908.005164622337	0.10138358778625954	-0.1629293893129771	-0.198831106870229	0.1649175412293853	-0.2593703148425787	-0.6026986506746627	1402.9304029304028	-1.0	-1.0	
1.698153574285801E12	4.33695652173913	1.5978260869565217	10.91304347826087	3.0	0.3434343434343434	2911.764705882353	-0.261331106870229	0.214456106870229	-0.026956106870229007	0.17991004497751123	-0.2383808095952024	-0.5967016491754122	1403.6630036630036	-1.0	-1.0	
1.698153574293613E12	4.358695652173913	1.5869565217391304	10.934782608695652	3.0	0.3438783438783439	2908.005164622337	-0.10197996183206107	0.1473043893129771	-0.14861641221374045	0.17541229385307347	-0.2338830584707646	-0.5982008995502248	1404.3956043956043	-1.0	-1.0	
1.698153574301425E12	4.3478260869565215	1.5978260869565217	10.934782608695652	3.0	0.3438783438783439	2908.005164622337	-0.1607824427480916	0.14098282442748092	-0.03912213740458015	0.1664167916041979	-0.2368815592203898	-0.6116941529235382	1405.8608058608058	-1.0	-1.0	
1.6981535743092373E12	4.380434782608695	1.608695652173913	10.91304347826087	3.0	0.3438783438783439	2908.005164622337	-0.2791030534351145	0.25811068702290074	-0.1296517175572519	0.1664167916041979	-0.2368815592203898	-0.6116941529235382	1405.8608058608058	-1.0	-1.0	
1.6981535743170493E12	4.358695652173913	1.608695652173913	10.92391304347826	3.0	0.3438783438783439	2908.005164622337	-0.02743320610687023	0.3905057251908397	-0.3105916030534351	0.17541229385307347	-0.24887556221889054	-0.5997001499250375	1408.058608058608	-1.0	-1.0	
1.6981535743248613E12	4.33695652173913	1.5978260869565217	10.902173913043478	3.0	0.3438783438783439	2908.005164622337	-0.09875954198473282	0.36975190839694655	-0.23079675572519084	0.17391304347826086	-0.24137931034482757	-0.5952023988005997	1405.8608058608058	-1.0	-1.0	
1.6981535743326733E12	4.304347826086956	1.608695652173913	10.934782608695652	3.0	0.3438783438783439	2908.005164622337	-0.0961354961832061	0.22519083969465647	-0.016459923664122137	0.17391304347826086	-0.2383808095952024	-0.6011994002998501	1404.3956043956043	-1.0	-1.0	
1.6981535743404854E12	4.315217391304348	1.576086956521739	10.945652173913043	3.0	0.3438783438783439	2908.005164622337	-0.10675095419847327	-0.05379293893129771	0.09279580152671756	0.17691154422788605	-0.24587706146926536	-0.5982008995502248	1402.9304029304028	-1.0	-1.0	
1.6981535743482976E12	4.293478260869565	1.5869565217391304	10.92391304347826	3.0	0.3438783438783439	2908.005164622337	0.27958015267175573	-0.10376908396946564	-0.2569179389312977	0.17691154422788605	-0.24587706146926536	-0.5982008995502248	1402.197802197802	-1.0	-1.0	
1.6981535743561096E12	4.293478260869565	1.5978260869565217	10.934782608695652	3.0	0.3438783438783439	2908.005164622337	0.11688931297709923	-0.09291507633587785	0.035663167938931296	0.17541229385307347	-0.23238380809595202	-0.5997001499250375	1400.7326007326005	-1.0	-1.0	
1.6981535743639216E12	4.293478260869565	1.5978260869565217	10.945652173913043	3.0	0.3438783438783439	2908.005164622337	-0.017294847328244274	0.11688931297709923	-0.223043893129771	0.17391304347826086	-0.24737631184407796	-0.5982008995502248	1397.8021978021977	-1.0	-1.0	
1.6981535743717336E12	4.304347826086956	1.576086956521739	10.934782608695652	3.0	0.3438783438783439	2908.005164622337	0.04604007633587786	-0.040553435114503815	-0.17318702290076335	0.1679160419790105	-0.24287856071964017	-0.6131934032983508	1397.069597069597	-1.0	-1.0	
1.6981535743795457E12	4.326086956521739	1.5869565217391304	10.945652173913043	3.0	0.3434343434343434	2911.764705882353	0.15505725190839695	-0.377743320610687	0.029341603053435115	0.16041979010494753	-0.24737631184407796	-0.5997001499250375	1397.069597069597	-1.0	-1.0	
1.6981535743873577E12	4.33695652173913	1.576086956521739	10.934782608695652	3.0	0.3438783438783439	2908.005164622337	0.17259064885496184	-0.26645992366412213	0.1834446564885496	0.16041979010494753	-0.24737631184407796	-0.5997001499250375	1398.5347985347985	-1.0	-1.0	
1.69815357439517E12	4.315217391304348	1.5543478260869565	10.902173913043478	3.0	0.3438783438783439	2908.005164622337	0.19024332061068702	-0.3416030534351145	0.12201812977099236	0.16941529235382308	-0.23238380809595202	-0.6026986506746627	1400.7326007326005	-1.0	-1.0	
1.698153574402982E12	4.315217391304348	1.5869565217391304	10.902173913043478	3.0	0.3438783438783439	2908.005164622337	-0.0065601145038167935	0.02791030534351145	-0.07955629770992366	0.17541229385307347	-0.23238380809595202	-0.6026986506746627	1400.0	-1.0	-1.0	
1.698153574410794E12	4.315217391304348	1.576086956521739	10.92391304347826	3.0	0.3438783438783439	2908.005164622337	-0.017771946564885496	0.16412213740458015	-0.05021469465648855	0.17541229385307347	-0.2368815592203898	-0.6101949025487257	1400.0	-1.0	-1.0	
1.698153574418606E12	4.33695652173913	1.5869565217391304	10.934782608695652	3.0	0.3438783438783439	2908.005164622337	0.21505248091603052	0.19095896946564886	-0.14110209923664122	0.17841079460269865	-0.23088455772113942	-0.6011994002998501	1398.5347985347985	-1.0	-1.0	
1.698153574426418E12	4.315217391304348	1.5869565217391304	10.934782608695652	3.0	0.3438783438783439	2908.005164622337	0.10985209923664122	-0.18070133587786258	-0.10985209923664122	0.17841079460269865	-0.23088455772113942	-0.6011994002998501	1399.2673992673992	-1.0	-1.0	
1.69815357443423E12	4.304347826086956	1.608695652173913	10.91304347826087	3.0	0.34432234432234426	2904.2553191489365	-0.05784828244274809	0.04615935114503816	-0.018010496183206107	0.1829085457271364	-0.25337331334332835	-0.6041979010494752	1400.7326007326005	-1.0	-1.0	
1.6981535744420422E12	4.33695652173913	1.576086956521739	10.934782608695652	3.0	0.3438783438783439	2908.005164622337	0.2973520992366412	-0.15780057251908397	-0.07907919847328244	0.17091454272863568	-0.2518740629685157	-0.6041979010494752	1399.2673992673992	-1.0	-1.0	
1.6981535744498542E12	4.293478260869565	1.5869565217391304	10.956521739130434	3.0	0.3438783438783439	2908.005164622337	-0.00846851145038168	-0.5877862595419847	0.04305820610687023	0.17541229385307347	-0.22938530734632684	-0.6101949025487257	1396.3369963369962	-1.0	-1.0	
1.6981535744576663E12	4.282608695652174	1.5869565217391304	10.91304347826087	3.0	0.34432234432234426	2904.2553191489365	0.009064885496183206	-0.35901717557251905	-0.12380725190839695	0.17991004497751123	-0.2608695652173913	-0.608695652173913	1394.8717948717947	-1.0	-1.0	
1.6981535744654783E12	4.304347826086956	1.576086956521739	10.92391304347826	3.0	0.3438783438783439	2908.005164622337	0.4700620229007633	-0.4964217557251908	-0.1538645038167939	0.17991004497751123	-0.2608695652173913	-0.608695652173913	1391.2087912087911	-1.0	-1.0	
1.6981535744732903E12	4.304347826086956	1.576086956521739	10.934782608695652	3.0	0.3438783438783439	2908.005164622337	0.31452767175572516	-0.3738072519083969	0.10615458015267175	0.17091454272863568	-0.24587706146926536	-0.5997001499250375	1388.278388278388	-1.0	-1.0	
1.6981535744811025E12	4.293478260869565	1.576086956521739	10.92391304347826	3.0	0.3434343434343434	2911.764705882353	0.4363072519083969	-0.32717080152671757	-0.18630725190839695	0.17541229385307347	-0.2353823088455772	-0.5922038980509745	1382.4175824175823	-1.0	-1.0	
1.6981535744889146E12	4.33695652173913	1.576086956521739	10.945652173913043	3.0	0.3438783438783439	2908.005164622337	0.3424379770992366	-0.24666030534351144	0.16662690839694655	0.17091454272863568	-0.24287856071964017	-0.6071964017991004	1377.2893772893772	-1.0	-1.0	
1.6981535744967266E12	4.326086956521739	1.576086956521739	10.945652173913043	3.0	0.3438783438783439	2908.005164622337	0.23509064885496184	-0.0759780534351145	0.25524809160305345	0.17841079460269865	-0.24887556221889054	-0.6071964017991004	1372.8937728937728	-1.0	-1.0	
1.6981535745045386E12	4.315217391304348	1.5978260869565217	10.956521739130434	3.0	0.3438783438783439	2908.005164622337	0.4639790076335878	-0.04162690839694656	-0.09864026717557252	0.17841079460269865	-0.24887556221889054	-0.6071964017991004	1372.161172161172	-1.0	-1.0	
1.6981535745123506E12	4.304347826086956	1.5869565217391304	10.945652173913043	3.0	0.3434343434343434	2911.764705882353	0.6595896946564885	0.06739026717557252	-0.11319179389312976	0.16941529235382308	-0.22338830584707645	-0.5982008995502248	1371.4285714285713	-1.0	-1.0	
1.6981535745201626E12	4.293478260869565	1.5869565217391304	10.902173913043478	3.0	0.3438783438783439	2908.005164622337	0.2751669847328244	-0.14646946564885496	-0.019561068702290074	0.17991004497751123	-0.2623688155922039	-0.6101949025487257	1372.161172161172	-1.0	-1.0	
1.6981535745279749E12	4.293478260869565	1.5869565217391304	10.945652173913043	3.0	0.3438783438783439	2908.005164622337	0.30462786259541985	-0.34577767175572516	0.1631679389312977	0.1619190404797601	-0.24437781109445278	-0.6071964017991004	1374.3589743589744	-1.0	-1.0	
1.6981535745357869E12	4.304347826086956	1.576086956521739	10.967391304347826	3.0	0.3434343434343434	2911.764705882353	0.22876908396946563	-0.45395992366412213	0.42115935114503816	0.1634182908545727	-0.24287856071964017	-0.5952023988005997	1380.2197802197802	-1.0	-1.0	
1.6981535745435989E12	4.304347826086956	1.576086956521739	10.934782608695652	3.0	0.3434343434343434	2911.764705882353	0.6269083969465649	-0.6855916030534351	0.40326812977099236	0.1634182908545727	-0.24287856071964017	-0.5952023988005997	1385.3479853479853	-1.0	-1.0	
1.698153574551411E12	4.315217391304348	1.5978260869565217	10.945652173913043	3.0	0.3438783438783439	2908.005164622337	0.5770515267175572	-0.4583730916030534	0.30963740458015265	0.17541229385307347	-0.24587706146926536	-0.6041979010494752	1392.6739926739926	-1.0	-1.0	
1.698153574559223E12	4.326086956521739	1.608695652173913	10.92391304347826	3.0	0.3438783438783439	2908.005164622337	0.5590410305343512	-0.27814885496183206	0.6450381679389313	0.17991004497751123	-0.24287856071964017	-0.6071964017991004	1397.069597069597	-1.0	-1.0	
1.698153574567035E12	4.33695652173913	1.6195652173913042	10.902173913043478	3.0	0.3438783438783439	2908.005164622337	0.32884064885496184	-0.25298187022900764	0.549618320610687	0.17391304347826086	-0.2353823088455772	-0.5982008995502248	1402.197802197802	-1.0	-1.0	
1.6981535745748472E12	4.358695652173913	1.5978260869565217	10.91304347826087	3.0	0.3438783438783439	2908.005164622337	0.49713740458015265	0.01634064885496183	0.469942748091603	0.1829085457271364	-0.25487256371814093	-0.5937031484257871	1405.128205128205	-1.0	-1.0	
1.6981535745826592E12	4.3478260869565215	1.6195652173913042	10.91304347826087	3.0	0.3438783438783439	2908.005164622337	0.29663645038167935	-0.003101145038167939	0.20634541984732824	0.1829085457271364	-0.25487256371814093	-0.5937031484257871	1408.058608058608	-1.0	-1.0	
1.6981535745904712E12	4.358695652173913	1.608695652173913	10.945652173913043	3.0	0.3438783438783439	2908.005164622337	0.3536498091603053	0.17974713740458015	0.3859732824427481	0.18440779610194902	-0.24137931034482757	-0.6116941529235382	1414.6520146520145	-1.0	-1.0	
1.6981535745982832E12	4.326086956521739	1.6195652173913042	10.91304347826087	3.0	0.34432234432234426	2904.2553191489365	0.5657204198473282	-0.09685114503816794	0.3080868320610687	0.1649175412293853	-0.2353823088455772	-0.6056971514242878	1419.047619047619	-1.0	-1.0	
1.6981535746060952E12	4.33695652173913	1.5869565217391304	10.945652173913043	3.0	0.3438783438783439	2908.005164622337	0.7746898854961832	-0.41662690839694655	0.19823473282442747	0.17991004497751123	-0.239880059970015	-0.6026986506746627	1421.9780219780218	-1.0	-1.0	
1.6981535746139075E12	4.326086956521739	1.5652173913043477	10.92391304347826	3.0	0.34432234432234426	2904.2553191489365	0.5109732824427481	-0.6414599236641221	0.20896946564885496	0.17991004497751123	-0.239880059970015	-0.6026986506746627	1427.106227106227	-1.0	-1.0	
1.6981535746217195E12	4.326086956521739	1.5652173913043477	10.891304347826086	3.0	0.3438783438783439	2908.005164622337	0.6594704198473282	-0.7546517175572519	0.22053912213740456	0.17241379310344826	-0.24437781109445278	-0.6056971514242878	1433.6996336996335	-1.0	-1.0	
1.6981535746295315E12	4.33695652173913	1.5869565217391304	10.891304347826086	3.0	0.3434343434343434	2911.764705882353	0.7911498091603053	-1.1909589694656488	0.11199904580152671	0.17691154422788605	-0.24587706146926536	-0.6026986506746627	1435.8974358974358	-1.0	-1.0	
1.6981535746373435E12	4.33695652173913	1.576086956521739	10.902173913043478	3.0	0.3438783438783439	2908.005164622337	0.6029341603053435	-1.239861641221374	0.046278625954198474	0.18140929535232383	-0.24437781109445278	-0.6056971514242878	1438.095238095238	-1.0	-1.0	
1.6981535746451555E12	4.358695652173913	1.5652173913043477	10.880434782608695	3.0	0.3438783438783439	2908.005164622337	0.6272662213740458	-0.8157204198473282	0.18368320610687022	0.17541229385307347	-0.24437781109445278	-0.5982008995502248	1440.2930402930401	-1.0	-1.0	
1.6981535746529675E12	4.391304347826087	1.5978260869565217	10.91304347826087	3.0	0.3434343434343434	2911.764705882353	0.634780534351145	-0.2278148854961832	0.2572757633587786	0.17541229385307347	-0.24437781109445278	-0.5982008995502248	1441.7582417582416	-1.0	-1.0	
1.6981535746607798E12	4.380434782608695	1.608695652173913	10.945652173913043	3.0	0.3434343434343434	2911.764705882353	0.751192748091603	-0.11808206106870228	0.4206822519083969	0.17991004497751123	-0.25487256371814093	-0.5922038980509745	1443.956043956044	-1.0	-1.0	
1.6981535746685918E12	4.380434782608695	1.5978260869565217	10.934782608695652	3.0	0.3434343434343434	2911.764705882353	0.5756202290076335	-0.009541984732824428	-0.10293416030534351	0.17841079460269865	-0.24737631184407796	-0.5982008995502248	1443.956043956044	-1.0	-1.0	
1.6981535746764038E12	4.358695652173913	1.6195652173913042	10.956521739130434	3.0	0.3438783438783439	2908.005164622337	0.7083730916030534	0.2166030534351145	-0.08993320610687022	0.18140929535232383	-0.24287856071964017	-0.5997001499250375	1443.956043956044	-1.0	-1.0	
1.6981535746842158E12	4.3478260869565215	1.5978260869565217	10.92391304347826	3.0	0.3434343434343434	2911.764705882353	0.6888120229007634	0.16579198473282442	-0.013955152671755724	0.17991004497751123	-0.24587706146926536	-0.6011994002998501	1441.7582417582416	-1.0	-1.0	
1.6981535746920278E12	4.304347826086956	1.6304347826086956	10.934782608695652	3.0	0.3438783438783439	2908.005164622337	0.4847328244274809	0.10090648854961831	0.030295801526717556	0.17991004497751123	-0.24587706146926536	-0.6011994002998501	1439.5604395604394	-1.0	-1.0	
1.6981535746998398E12	4.260869565217392	1.608695652173913	10.956521739130434	3.0	0.3434343434343434	2911.764705882353	0.6309637404580153	-0.28458969465648853	2.3854961832061068E-4	0.1634182908545727	-0.2608695652173913	-0.6026986506746627	1434.4322344322343	-1.0	-1.0	
1.698153574707652E12	4.25	1.608695652173913	10.91304347826087	3.0	0.3438783438783439	2908.005164622337	0.47447519083969464	-0.48389790076335876	0.13979007633587787	0.17991004497751123	-0.24287856071964017	-0.6146926536731634	1428.5714285714284	-1.0	-1.0	
1.698153574715464E12	4.239130434782608	1.6195652173913042	10.934782608695652	3.0	0.3434343434343434	2911.764705882353	0.7742127862595419	-0.8487595419847328	0.2140982824427481	0.17841079460269865	-0.24137931034482757	-0.5982008995502248	1422.7106227106226	-1.0	-1.0	
1.6981535747232761E12	4.271739130434782	1.608695652173913	10.956521739130434	3.0	0.3438783438783439	2908.005164622337	1.1344227099236641	-1.0733540076335877	0.29126908396946566	0.17391304347826086	-0.24287856071964017	-0.6026986506746627	1418.3150183150183	-1.0	-1.0	
1.6981535747310881E12	4.293478260869565	1.5978260869565217	10.945652173913043	3.0	0.3434343434343434	2911.764705882353	0.7427242366412213	-1.0359017175572518	0.4281965648854962	0.17391304347826086	-0.24287856071964017	-0.6026986506746627	1414.6520146520145	-1.0	-1.0	
1.6981535747389001E12	4.282608695652174	1.6195652173913042	10.92391304347826	3.0	0.3438783438783439	2908.005164622337	0.8723759541984732	-0.8884780534351144	0.4100667938931298	0.17091454272863568	-0.24887556221889054	-0.6056971514242878	1413.1868131868132	-1.0	-1.0	
1.6981535747467124E12	4.304347826086956	1.6304347826086956	10.92391304347826	3.0	0.3434343434343434	2911.764705882353	0.6047232824427481	-0.6521946564885496	0.5147900763358778	0.17541229385307347	-0.239880059970015	-0.6011994002998501	1410.989010989011	-1.0	-1.0	
1.6981535747545244E12	4.326086956521739	1.6195652173913042	10.945652173913043	3.0	0.3434343434343434	2911.764705882353	0.7959208015267175	-0.7386688931297709	0.5270753816793893	0.16941529235382308	-0.23238380809595202	-0.5967016491754122	1408.7912087912086	-1.0	-1.0	
1.6981535747623364E12	4.326086956521739	1.608695652173913	10.934782608695652	3.0	0.3434343434343434	2911.764705882353	0.6356154580152672	-0.4750715648854962	0.35627385496183206	0.17091454272863568	-0.24887556221889054	-0.6056971514242878	1408.058608058608	-1.0	-1.0	
1.6981535747701484E12	4.315217391304348	1.5978260869565217	10.92391304347826	3.0	0.3434343434343434	2911.764705882353	0.4159112595419847	-0.21123568702290074	0.2922232824427481	0.17091454272863568	-0.24887556221889054	-0.6056971514242878	1408.7912087912086	-1.0	-1.0	
1.6981535747779604E12	4.326086956521739	1.5978260869565217	10.945652173913043	3.0	0.3434343434343434	2911.764705882353	0.5020276717557252	-0.5305343511450381	0.19775763358778625	0.17541229385307347	-0.2563718140929535	-0.6146926536731634	1409.5238095238094	-1.0	-1.0	
1.6981535747857725E12	4.326086956521739	1.576086956521739	10.92391304347826	3.0	0.3434343434343434	2911.764705882353	0.5108540076335878	0.02325858778625954	0.5444895038167938	0.1679160419790105	-0.24437781109445278	-0.5982008995502248	1407.3260073260071	-1.0	-1.0	
1.6981535747935847E12	4.33695652173913	1.5869565217391304	10.92391304347826	3.0	0.3434343434343434	2911.764705882353	0.5954198473282443	-0.14635019083969464	0.4336832061068702	0.17391304347826086	-0.25037481259370314	-0.6071964017991004	1404.3956043956043	-1.0	-1.0	
1.6981535748013967E12	4.3478260869565215	1.5869565217391304	10.902173913043478	3.0	0.3438783438783439	2908.005164622337	0.3764312977099237	0.023497137404580152	0.5354246183206106	0.17241379310344826	-0.2518740629685157	-0.6026986506746627	1401.4652014652013	-1.0	-1.0	
1.6981535748092087E12	4.358695652173913	1.608695652173913	10.92391304347826	3.0	0.3434343434343434	2911.764705882353	0.4916507633587786	0.20896946564885496	0.4073234732824427	0.17241379310344826	-0.2518740629685157	-0.6026986506746627	1398.5347985347985	-1.0	-1.0	
1.6981535748170208E12	4.33695652173913	1.6195652173913042	10.91304347826087	3.0	0.3438783438783439	2908.005164622337	0.22459446564885496	0.1473043893129771	0.4489503816793893	0.1889055472263868	-0.24137931034482757	-0.608695652173913	1399.2673992673992	-1.0	-1.0	
1.6981535748248328E12	4.369565217391305	1.6195652173913042	10.91304347826087	3.0	0.3434343434343434	2911.764705882353	0.15982824427480916	0.3146469465648855	0.16937022900763357	0.17091454272863568	-0.2353823088455772	-0.6116941529235382	1399.2673992673992	-1.0	-1.0	
1.6981535748326448E12	4.358695652173913	1.6304347826086956	10.92391304347826	3.0	0.3438783438783439	2908.005164622337	0.04878339694656488	0.4798425572519084	0.5625	0.17391304347826086	-0.2338830584707646	-0.6146926536731634	1399.2673992673992	-1.0	-1.0	
1.698153574840457E12	4.3478260869565215	1.6304347826086956	10.934782608695652	3.0	0.3434343434343434	2911.764705882353	0.09434637404580153	0.5639312977099237	0.4037452290076336	0.16941529235382308	-0.24137931034482757	-0.6116941529235382	1402.197802197802	-1.0	-1.0	
1.698153574848269E12	4.315217391304348	1.641304347826087	10.934782608695652	3.0	0.3438783438783439	2908.005164622337	0.19561068702290074	0.32764790076335876	-0.26013835877862596	0.16941529235382308	-0.24137931034482757	-0.6116941529235382	1406.5934065934066	-1.0	-1.0	
1.698153574856081E12	4.293478260869565	1.6195652173913042	10.945652173913043	3.0	0.342990342990343	2915.5339805825242	0.07168416030534351	0.23091603053435114	-0.23091603053435114	0.15892053973013492	-0.24887556221889054	-0.6041979010494752	1409.5238095238094	-1.0	-1.0	
1.698153574863893E12	4.282608695652174	1.608695652173913	10.945652173913043	3.0	0.3434343434343434	2911.764705882353	-0.1115219465648855	-0.02993797709923664	0.17998568702290077	0.17991004497751123	-0.239880059970015	-0.5967016491754122	1410.989010989011	-1.0	-1.0	
1.698153574871705E12	4.271739130434782	1.6304347826086956	10.934782608695652	3.0	0.3434343434343434	2911.764705882353	0.29985687022900764	-0.4426288167938931	0.03888358778625954	0.17841079460269865	-0.22638680659670163	-0.608695652173913	1412.4542124542124	-1.0	-1.0	
1.698153574879517E12	4.315217391304348	1.608695652173913	10.92391304347826	3.0	0.3434343434343434	2911.764705882353	0.586354961832061	-0.6220181297709924	-0.03876431297709924	0.16941529235382308	-0.2518740629685157	-0.5997001499250375	1414.6520146520145	-1.0	-1.0	
1.6981535748873293E12	4.358695652173913	1.6195652173913042	10.945652173913043	3.0	0.3434343434343434	2911.764705882353	0.15279103053435114	-0.40219465648854963	0.0089456106870229	0.16941529235382308	-0.2518740629685157	-0.5997001499250375	1417.5824175824175	-1.0	-1.0	
1.6981535748951414E12	4.391304347826087	1.5978260869565217	10.880434782608695	3.0	0.3434343434343434	2911.764705882353	0.04198473282442748	0.1073473282442748	-0.12714694656488548	0.17241379310344826	-0.24137931034482757	-0.608695652173913	1423.4432234432234	-1.0	-1.0	
1.6981535749029534E12	4.391304347826087	1.5978260869565217	10.869565217391305	3.0	0.3438783438783439	2908.005164622337	0.2411736641221374	-0.28280057251908397	0.08826335877862596	0.17541229385307347	-0.239880059970015	-0.6131934032983508	1424.1758241758241	-1.0	-1.0	
1.6981535749107654E12	4.369565217391305	1.5869565217391304	10.902173913043478	3.0	0.3434343434343434	2911.764705882353	0.055343511450381674	0.06142652671755725	0.04496660305343511	0.1664167916041979	-0.24137931034482757	-0.5967016491754122	1428.5714285714284	-1.0	-1.0	
1.6981535749185774E12	4.358695652173913	1.576086956521739	10.91304347826087	3.0	0.3434343434343434	2911.764705882353	0.16257156488549618	0.2655057251908397	0.028864503816793893	0.16941529235382308	-0.24437781109445278	-0.5997001499250375	1431.5018315018315	-1.0	-1.0	
1.6981535749263896E12	4.3478260869565215	1.608695652173913	10.956521739130434	3.0	0.3434343434343434	2911.764705882353	0.17581106870229007	0.2076574427480916	-0.136331106870229	0.16941529235382308	-0.24437781109445278	-0.5997001499250375	1432.2344322344322	-1.0	-1.0	
1.6981535749342017E12	4.326086956521739	1.5978260869565217	10.956521739130434	3.0	0.3434343434343434	2911.764705882353	0.2680104961832061	0.20849236641221372	0.29759064885496184	0.17841079460269865	-0.2518740629685157	-0.6071964017991004	1432.9670329670328	-1.0	-1.0	
1.6981535749420137E12	4.282608695652174	1.6195652173913042	10.934782608695652	3.0	0.3434343434343434	2911.764705882353	0.677719465648855	0.1940601145038168	0.11450381679389313	0.17691154422788605	-0.2353823088455772	-0.616191904047976	1431.5018315018315	-1.0	-1.0	
1.6981535749498257E12	4.326086956521739	1.608695652173913	10.956521739130434	3.0	0.3434343434343434	2911.764705882353	0.41281011450381677	0.359375	0.1922709923664122	0.18440779610194902	-0.2353823088455772	-0.6026986506746627	1429.3040293040292	-1.0	-1.0	
1.6981535749576377E12	4.293478260869565	1.6195652173913042	10.945652173913043	3.0	0.3434343434343434	2911.764705882353	0.7284112595419847	-0.026001908396946563	0.03995706106870229	0.17091454272863568	-0.2563718140929535	-0.6071964017991004	1427.8388278388277	-1.0	-1.0	
1.6981535749654497E12	4.304347826086956	1.5978260869565217	10.945652173913043	3.0	0.3434343434343434	2911.764705882353	0.2798187022900763	0.2319895038167939	0.45491412213740456	0.17091454272863568	-0.2563718140929535	-0.6071964017991004	1425.6410256410256	-1.0	-1.0	
1.698153574973262E12	4.282608695652174	1.5869565217391304	10.934782608695652	3.0	0.3434343434343434	2911.764705882353	0.3839456106870229	0.25811068702290074	0.10090648854961831	0.17541229385307347	-0.2368815592203898	-0.6041979010494752	1425.6410256410256	-1.0	-1.0	
1.698153574981074E12	4.293478260869565	1.5869565217391304	10.945652173913043	3.0	0.3434343434343434	2911.764705882353	0.5013120229007634	-0.18893129770992365	0.03995706106870229	0.1679160419790105	-0.239880059970015	-0.6071964017991004	1420.5128205128203	-1.0	-1.0	
1.698153574988886E12	4.315217391304348	1.5869565217391304	10.934782608695652	3.0	0.3438783438783439	2908.005164622337	0.4171040076335878	-0.22006202290076335	-0.1291746183206107	0.17691154422788605	-0.24137931034482757	-0.6071964017991004	1416.8498168498168	-1.0	-1.0	
1.698153574996698E12	4.326086956521739	1.5543478260869565	10.945652173913043	3.0	0.3434343434343434	2911.764705882353	0.19751908396946563	-0.2931774809160305	0.37416507633587787	0.17841079460269865	-0.2578710644677661	-0.5952023988005997	1412.4542124542124	-1.0	-1.0	
1.69815357500451E12	4.33695652173913	1.576086956521739	10.934782608695652	3.0	0.3434343434343434	2911.764705882353	0.3580629770992366	0.04830629770992366	0.18642652671755724	0.17841079460269865	-0.2578710644677661	-0.5952023988005997	1411.7216117216117	-1.0	-1.0	
1.698153575012322E12	4.315217391304348	1.5869565217391304	10.945652173913043	3.0	0.342990342990343	2915.5339805825242	0.5502146946564885	-0.17581106870229007	0.44155534351145037	0.16941529235382308	-0.24287856071964017	-0.6026986506746627	1412.4542124542124	-1.0	-1.0	
1.6981535750201343E12	4.293478260869565	1.5978260869565217	10.934782608695652	3.0	0.342990342990343	2915.5339805825242	0.5571326335877862	-0.3374284351145038	0.401956106870229	0.17391304347826086	-0.25487256371814093	-0.5997001499250375	1413.9194139194137	-1.0	-1.0	
1.6981535750279463E12	4.293478260869565	1.5978260869565217	10.934782608695652	3.0	0.3438783438783439	2908.005164622337	0.4698234732824427	-0.03876431297709924	-0.046636450381679385	0.17391304347826086	-0.24437781109445278	-0.5937031484257871	1414.6520146520145	-1.0	-1.0	
1.6981535750357583E12	4.326086956521739	1.5978260869565217	10.934782608695652	3.0	0.3438783438783439	2908.005164622337	0.24713740458015265	0.01431297709923664	0.2863788167938931	0.17541229385307347	-0.24437781109445278	-0.5952023988005997	1415.3846153846152	-1.0	-1.0	
1.6981535750435703E12	4.3478260869565215	1.608695652173913	10.934782608695652	3.0	0.3434343434343434	2911.764705882353	0.36354961832061067	-0.025763358778625952	0.3887166030534351	0.17541229385307347	-0.24437781109445278	-0.5952023988005997	1412.4542124542124	-1.0	-1.0	
1.6981535750513823E12	4.293478260869565	1.608695652173913	10.92391304347826	3.0	0.3434343434343434	2911.764705882353	0.11068702290076335	0.057729007633587785	0.5503339694656488	0.17391304347826086	-0.2383808095952024	-0.5952023988005997	1413.9194139194137	-1.0	-1.0	
1.6981535750591946E12	4.304347826086956	1.608695652173913	10.945652173913043	3.0	0.3434343434343434	2911.764705882353	0.2595419847328244	-0.16674618320610687	0.4521708015267175	0.17091454272863568	-0.24137931034482757	-0.5982008995502248	1411.7216117216117	-1.0	-1.0	
1.6981535750670066E12	4.293478260869565	1.6195652173913042	10.945652173913043	3.0	0.3438783438783439	2908.005164622337	0.1315601145038168	-0.6523139312977099	0.4489503816793893	0.17841079460269865	-0.23088455772113942	-0.5982008995502248	1408.7912087912086	-1.0	-1.0	
1.6981535750748186E12	4.315217391304348	1.6304347826086956	10.92391304347826	3.0	0.3438783438783439	2908.005164622337	0.20109732824427481	-0.32251908396946566	0.275405534351145	0.17841079460269865	-0.239880059970015	-0.6011994002998501	1406.5934065934066	-1.0	-1.0	
1.6981535750826306E12	4.326086956521739	1.6521739130434783	10.92391304347826	3.0	0.3438783438783439	2908.005164622337	0.12034828244274809	-0.33146469465648853	0.3967080152671756	0.17841079460269865	-0.239880059970015	-0.6011994002998501	1406.5934065934066	-1.0	-1.0	
1.6981535750904426E12	4.33695652173913	1.641304347826087	10.934782608695652	3.0	0.3434343434343434	2911.764705882353	-0.15732347328244276	-0.17259064885496184	0.3932490458015267	0.17391304347826086	-0.24287856071964017	-0.6056971514242878	1409.5238095238094	-1.0	-1.0	
1.6981535750982546E12	4.326086956521739	1.6304347826086956	10.945652173913043	3.0	0.3434343434343434	2911.764705882353	0.14599236641221375	-0.3510257633587786	0.1140267175572519	0.1649175412293853	-0.23238380809595202	-0.6071964017991004	1409.5238095238094	-1.0	-1.0	
1.698153575106067E12	4.33695652173913	1.608695652173913	10.967391304347826	3.0	0.3434343434343434	2911.764705882353	0.26407442748091603	-0.3461354961832061	-0.11545801526717557	0.17691154422788605	-0.24287856071964017	-0.6026986506746627	1407.3260073260071	-1.0	-1.0	
1.698153575113879E12	4.33695652173913	1.6195652173913042	10.956521739130434	3.0	0.3434343434343434	2911.764705882353	-0.10925572519083969	0.16400286259541985	-0.03697519083969465	0.17841079460269865	-0.24887556221889054	-0.5982008995502248	1405.8608058608058	-1.0	-1.0	
1.698153575121691E12	4.358695652173913	1.6304347826086956	10.92391304347826	3.0	0.3434343434343434	2911.764705882353	0.04031488549618321	0.30355438931297707	0.054270038167938926	0.17841079460269865	-0.24887556221889054	-0.5982008995502248	1404.3956043956043	-1.0	-1.0	
1.698153575129503E12	4.3478260869565215	1.608695652173913	10.92391304347826	3.0	0.3434343434343434	2911.764705882353	0.26395515267175573	0.28900286259541985	-0.06834446564885496	0.17091454272863568	-0.25487256371814093	-0.6071964017991004	1405.128205128205	-1.0	-1.0	
1.698153575137315E12	4.33695652173913	1.608695652173913	10.92391304347826	3.0	0.3434343434343434	2911.764705882353	-0.03268129770992366	0.21171278625954199	0.1140267175572519	0.17391304347826086	-0.2338830584707646	-0.6026986506746627	1402.9304029304028	-1.0	-1.0	
1.698153575145127E12	4.315217391304348	1.6195652173913042	10.934782608695652	3.0	0.3438783438783439	2908.005164622337	0.4205629770992366	0.05904103053435114	-0.20598759541984732	0.1829085457271364	-0.25037481259370314	-0.5982008995502248	1402.197802197802	-1.0	-1.0	
1.6981535751529392E12	4.315217391304348	1.6304347826086956	10.91304347826087	3.0	0.3434343434343434	2911.764705882353	-0.15124045801526717	0.18225190839694655	-0.32729007633587787	0.17541229385307347	-0.24887556221889054	-0.6071964017991004	1402.197802197802	-1.0	-1.0	
1.6981535751607512E12	4.326086956521739	1.6195652173913042	10.92391304347826	3.0	0.3434343434343434	2911.764705882353	0.26013835877862596	-0.07633587786259542	0.17771946564885496	0.17541229385307347	-0.24887556221889054	-0.6071964017991004	1403.6630036630036	-1.0	-1.0	
1.6981535751685632E12	4.33695652173913	1.641304347826087	10.934782608695652	3.0	0.3434343434343434	2911.764705882353	0.14706583969465647	-0.24141221374045801	0.11426526717557252	0.17241379310344826	-0.25037481259370314	-0.6011994002998501	1405.8608058608058	-1.0	-1.0	
1.6981535751763752E12	4.326086956521739	1.6195652173913042	10.934782608695652	3.0	0.3434343434343434	2911.764705882353	0.17032442748091603	-0.1316793893129771	0.11235687022900763	0.16941529235382308	-0.2518740629685157	-0.6131934032983508	1406.5934065934066	-1.0	-1.0	
1.6981535751841873E12	4.3478260869565215	1.608695652173913	10.934782608695652	3.0	0.3434343434343434	2911.764705882353	-0.017771946564885496	-0.03494751908396947	0.06166507633587786	0.16941529235382308	-0.2353823088455772	-0.6011994002998501	1408.058608058608	-1.0	-1.0	
1.6981535751919995E12	4.326086956521739	1.608695652173913	10.891304347826086	3.0	0.342990342990343	2915.5339805825242	-0.1901240458015267	0.045205152671755726	0.25775286259541985	0.16941529235382308	-0.2353823088455772	-0.6011994002998501	1409.5238095238094	-1.0	-1.0	
1.6981535751998115E12	4.315217391304348	1.5978260869565217	10.91304347826087	3.0	0.342990342990343	2915.5339805825242	0.27969942748091603	-0.15004770992366412	0.1766459923664122	0.17541229385307347	-0.25037481259370314	-0.6026986506746627	1413.1868131868132	-1.0	-1.0	
1.6981535752076235E12	4.326086956521739	1.5978260869565217	10.91304347826087	3.0	0.3434343434343434	2911.764705882353	0.31810591603053434	0.08289599236641221	0.21875	0.17541229385307347	-0.24137931034482757	-0.6101949025487257	1413.9194139194137	-1.0	-1.0	
1.6981535752154355E12	4.304347826086956	1.6195652173913042	10.945652173913043	3.0	0.342990342990343	2915.5339805825242	0.004651717557251908	0.13287213740458015	0.17032442748091603	0.16941529235382308	-0.24737631184407796	-0.6011994002998501	1412.4542124542124	-1.0	-1.0	
1.6981535752232476E12	4.304347826086956	1.5978260869565217	10.956521739130434	3.0	0.3434343434343434	2911.764705882353	-0.045205152671755726	-0.07895992366412213	0.09184160305343511	0.17391304347826086	-0.24737631184407796	-0.6056971514242878	1411.7216117216117	-1.0	-1.0	
1.6981535752310596E12	4.282608695652174	1.608695652173913	10.956521739130434	3.0	0.342990342990343	2915.5339805825242	-0.0029818702290076333	-0.014670801526717557	0.27158874045801523	0.17391304347826086	-0.24737631184407796	-0.6056971514242878	1411.7216117216117	-1.0	-1.0	
1.6981535752388718E12	4.293478260869565	1.608695652173913	10.945652173913043	3.0	0.3434343434343434	2911.764705882353	0.2075381679389313	0.13931297709923662	0.05558206106870229	0.1829085457271364	-0.25337331334332835	-0.5982008995502248	1412.4542124542124	-1.0	-1.0	
1.6981535752466838E12	4.304347826086956	1.5978260869565217	10.92391304347826	3.0	0.342990342990343	2915.5339805825242	-0.02588263358778626	-0.12034828244274809	-0.05474713740458015	0.17391304347826086	-0.25037481259370314	-0.5967016491754122	1408.7912087912086	-1.0	-1.0	
1.6981535752544958E12	4.315217391304348	1.608695652173913	10.956521739130434	3.0	0.3434343434343434	2911.764705882353	0.16853530534351144	-0.08897900763358778	0.12452290076335877	0.17091454272863568	-0.23238380809595202	-0.6056971514242878	1405.128205128205	-1.0	-1.0	
1.6981535752623079E12	4.293478260869565	1.6304347826086956	10.934782608695652	3.0	0.342990342990343	2915.5339805825242	-0.1876192748091603	-0.37905534351145037	0.1229723282442748	0.17691154422788605	-0.24287856071964017	-0.5952023988005997	1401.4652014652013	-1.0	-1.0	
1.6981535752701199E12	4.293478260869565	1.608695652173913	10.934782608695652	3.0	0.3434343434343434	2911.764705882353	-0.00715648854961832	-0.7279341603053435	-0.0491412213740458	0.17691154422788605	-0.24287856071964017	-0.5952023988005997	1399.2673992673992	-1.0	-1.0	
1.698153575277932E12	4.3478260869565215	1.5978260869565217	10.92391304347826	3.0	0.3434343434343434	2911.764705882353	0.15768129770992365	-0.8748807251908397	-0.09649332061068702	0.1679160419790105	-0.25037481259370314	-0.6026986506746627	1399.2673992673992	-1.0	-1.0	
1.6981535752857441E12	4.304347826086956	1.6304347826086956	10.92391304347826	3.0	0.3434343434343434	2911.764705882353	0.032084923664122134	-0.8529341603053435	-0.022423664122137404	0.16941529235382308	-0.24737631184407796	-0.5997001499250375	1398.5347985347985	-1.0	-1.0	
1.6981535752935562E12	4.315217391304348	1.6304347826086956	10.945652173913043	3.0	0.3434343434343434	2911.764705882353	-0.0648854961832061	-0.9655295801526718	-0.06977576335877862	0.17091454272863568	-0.2518740629685157	-0.6116941529235382	1399.2673992673992	-1.0	-1.0	
1.6981535753013682E12	4.33695652173913	1.608695652173913	10.91304347826087	3.0	0.3434343434343434	2911.764705882353	0.22173187022900762	-0.8791746183206106	-0.02612118320610687	0.17541229385307347	-0.2608695652173913	-0.6026986506746627	1399.2673992673992	-1.0	-1.0	
1.6981535753091802E12	4.3478260869565215	1.6195652173913042	10.934782608695652	3.0	0.3434343434343434	2911.764705882353	-0.059279580152671756	-0.3354007633587786	-0.04305820610687023	0.17541229385307347	-0.2608695652173913	-0.6026986506746627	1399.2673992673992	-1.0	-1.0	
1.6981535753169922E12	4.3478260869565215	1.5978260869565217	10.945652173913043	3.0	0.3434343434343434	2911.764705882353	0.22578721374045801	-0.08492366412213741	-0.13692748091603052	0.16941529235382308	-0.2338830584707646	-0.6011994002998501	1400.7326007326005	-1.0	-1.0	
1.6981535753248044E12	4.369565217391305	1.5978260869565217	10.91304347826087	3.0	0.342990342990343	2915.5339805825242	0.41889312977099236	0.1341841603053435	-0.17044370229007633	0.18140929535232383	-0.24587706146926536	-0.6071964017991004	1398.5347985347985	-1.0	-1.0	
1.6981535753326165E12	4.358695652173913	1.6195652173913042	10.934782608695652	3.0	0.342990342990343	2915.5339805825242	-0.016102099236641222	0.2751669847328244	-0.06572041984732824	0.17391304347826086	-0.24737631184407796	-0.6011994002998501	1397.069597069597	-1.0	-1.0	
1.6981535753404285E12	4.315217391304348	1.6195652173913042	10.92391304347826	3.0	0.3434343434343434	2911.764705882353	0.2850667938931298	0.13919370229007633	-0.17390267175572519	0.17991004497751123	-0.24737631184407796	-0.6071964017991004	1394.139194139194	-1.0	-1.0	
1.6981535753482405E12	4.3478260869565215	1.641304347826087	10.92391304347826	3.0	0.3434343434343434	2911.764705882353	0.21731870229007633	-0.043654580152671756	0.3760734732824427	0.17991004497751123	-0.24737631184407796	-0.6071964017991004	1394.139194139194	-1.0	-1.0	
1.6981535753560525E12	4.326086956521739	1.641304347826087	10.945652173913043	3.0	0.342990342990343	2915.5339805825242	0.4736402671755725	-0.10329198473282443	0.26252385496183206	0.17691154422788605	-0.239880059970015	-0.6101949025487257	1394.8717948717947	-1.0	-1.0	
1.6981535753638645E12	4.304347826086956	1.6630434782608696	10.956521739130434	3.0	0.3434343434343434	2911.764705882353	0.16173664122137404	-0.20813454198473283	0.4268845419847328	0.1679160419790105	-0.24287856071964017	-0.5952023988005997	1394.139194139194	-1.0	-1.0	
1.6981535753716768E12	4.304347826086956	1.6521739130434783	10.967391304347826	3.0	0.3434343434343434	2911.764705882353	0.2480916030534351	-0.035663167938931296	0.46576812977099236	0.17541229385307347	-0.2368815592203898	-0.5877061469265367	1397.069597069597	-1.0	-1.0	
1.6981535753794888E12	4.315217391304348	1.6630434782608696	10.91304347826087	3.0	0.342990342990343	2915.5339805825242	0.44107824427480913	-0.5069179389312977	0.09243797709923664	0.17391304347826086	-0.2578710644677661	-0.6056971514242878	1404.3956043956043	-1.0	-1.0	
1.6981535753873008E12	4.326086956521739	1.6521739130434783	10.934782608695652	3.0	0.342990342990343	2915.5339805825242	0.3127385496183206	-0.6106870229007634	0.05939885496183206	0.17391304347826086	-0.2578710644677661	-0.6056971514242878	1413.9194139194137	-1.0	-1.0	
1.6981535753951128E12	4.33695652173913	1.6521739130434783	10.891304347826086	3.0	0.3434343434343434	2911.764705882353	0.0022662213740458014	-0.8196564885496183	0.10412690839694656	0.17091454272863568	-0.24137931034482757	-0.6011994002998501	1426.3736263736262	-1.0	-1.0	
1.6981535754029248E12	4.369565217391305	1.641304347826087	10.92391304347826	3.0	0.342990342990343	2915.5339805825242	0.2744513358778626	-0.5237356870229007	0.2548902671755725	0.1649175412293853	-0.24137931034482757	-0.6011994002998501	1436.6300366300366	-1.0	-1.0	
1.6981535754107368E12	4.3478260869565215	1.6304347826086956	10.956521739130434	3.0	0.342990342990343	2915.5339805825242	0.1765267175572519	-0.44095896946564883	0.08229961832061068	0.17691154422788605	-0.2338830584707646	-0.6026986506746627	1445.4212454212454	-1.0	-1.0	
1.698153575418549E12	4.369565217391305	1.6304347826086956	10.978260869565217	3.0	0.342990342990343	2915.5339805825242	-0.13454198473282442	-0.40350667938931295	0.01812977099236641	0.17091454272863568	-0.24137931034482757	-0.5982008995502248	1454.9450549450548	-1.0	-1.0	
1.698153575426361E12	4.380434782608695	1.6195652173913042	10.91304347826087	3.0	0.3434343434343434	2911.764705882353	0.18451812977099236	-0.4881917938931298	0.10639312977099236	0.17091454272863568	-0.24137931034482757	-0.5982008995502248	1465.201465201465	-1.0	-1.0	
1.698153575434173E12	4.358695652173913	1.6304347826086956	10.902173913043478	3.0	0.3434343434343434	2911.764705882353	-0.339456106870229	0.1272662213740458	-0.15696564885496184	0.17241379310344826	-0.22938530734632684	-0.6071964017991004	1475.4578754578754	-1.0	-1.0	
1.698153575441985E12	4.391304347826087	1.6195652173913042	10.92391304347826	3.0	0.3434343434343434	2911.764705882353	0.10114503816793893	0.31226145038167935	-0.18857347328244273	0.16941529235382308	-0.25037481259370314	-0.5967016491754122	1480.5860805860805	-1.0	-1.0	
1.698153575449797E12	4.4021739130434785	1.6195652173913042	10.934782608695652	3.0	0.342990342990343	2915.5339805825242	0.12881679389312978	0.1431297709923664	-0.02194656488549618	0.17241379310344826	-0.239880059970015	-0.5997001499250375	1484.2490842490843	-1.0	-1.0	
1.6981535754576094E12	4.380434782608695	1.5978260869565217	10.92391304347826	3.0	0.3434343434343434	2911.764705882353	0.10806297709923664	0.109375	-0.09995229007633587	0.17541229385307347	-0.24587706146926536	-0.6101949025487257	1483.5164835164835	-1.0	-1.0	
1.6981535754654214E12	4.33695652173913	1.5978260869565217	10.92391304347826	3.0	0.3434343434343434	2911.764705882353	-0.12619274809160305	0.2303196564885496	-0.9725667938931297	0.17541229385307347	-0.24587706146926536	-0.6101949025487257	1480.5860805860805	-1.0	-1.0	
1.6981535754732334E12	4.434782608695652	1.5978260869565217	10.934782608695652	3.0	0.3434343434343434	2911.764705882353	-0.01920324427480916	0.44083969465648853	-0.8462547709923663	0.17391304347826086	-0.25037481259370314	-0.6116941529235382	1479.120879120879	-1.0	-1.0	
1.6981535754810454E12	4.315217391304348	1.5978260869565217	10.934782608695652	3.0	0.3425463425463426	2919.3130265716136	-0.1737833969465649	0.4674379770992366	-0.04711354961832061	0.17541229385307347	-0.2563718140929535	-0.608695652173913	1476.1904761904761	-1.0	-1.0	
1.6981535754888574E12	4.293478260869565	1.6304347826086956	10.902173913043478	3.0	0.342990342990343	2915.5339805825242	-0.15827767175572519	0.4025524809160305	-0.21827290076335876	0.17691154422788605	-0.23238380809595202	-0.6026986506746627	1472.5274725274724	-1.0	-1.0	
1.6981535754966694E12	4.293478260869565	1.5869565217391304	10.945652173913043	3.0	0.342990342990343	2915.5339805825242	-0.12833969465648853	-0.22614503816793893	0.08790553435114504	0.17241379310344826	-0.2383808095952024	-0.5982008995502248	1468.8644688644688	-1.0	-1.0	
1.6981535755044817E12	4.304347826086956	1.608695652173913	10.934782608695652	3.0	0.3434343434343434	2911.764705882353	0.1295324427480916	0.0826574427480916	-0.06560114503816794	0.17241379310344826	-0.2383808095952024	-0.5982008995502248	1463.7362637362637	-1.0	-1.0	
1.6981535755122937E12	4.293478260869565	1.608695652173913	10.91304347826087	3.0	0.342990342990343	2915.5339805825242	0.35663167938931295	-0.40458015267175573	0.1762881679389313	0.17841079460269865	-0.24137931034482757	-0.6101949025487257	1460.07326007326	-1.0	-1.0	
1.6981535755201057E12	4.315217391304348	1.5869565217391304	10.91304347826087	3.0	0.342990342990343	2915.5339805825242	-0.042461832061068704	-0.4444179389312977	-0.011331106870229007	0.17391304347826086	-0.24137931034482757	-0.5997001499250375	1452.7472527472526	-1.0	-1.0	
1.6981535755279177E12	4.326086956521739	1.6195652173913042	10.92391304347826	3.0	0.3434343434343434	2911.764705882353	0.031846374045801526	-0.25656011450381677	0.032204198473282444	0.1679160419790105	-0.24887556221889054	-0.608695652173913	1444.6886446886447	-1.0	-1.0	
1.6981535755357297E12	4.326086956521739	1.6195652173913042	10.934782608695652	3.0	0.342990342990343	2915.5339805825242	0.07526240458015267	-0.22435591603053434	0.3821564885496183	0.1649175412293853	-0.24137931034482757	-0.5997001499250375	1435.164835164835	-1.0	-1.0	
1.6981535755435417E12	4.358695652173913	1.608695652173913	10.92391304347826	3.0	0.342990342990343	2915.5339805825242	-0.004413167938931297	0.02051526717557252	-0.016698473282442748	0.1649175412293853	-0.24137931034482757	-0.5997001499250375	1428.5714285714284	-1.0	-1.0	
1.698153575551354E12	4.33695652173913	1.608695652173913	10.92391304347826	3.0	0.3434343434343434	2911.764705882353	0.14861641221374045	-0.13525763358778625	0.13704675572519084	0.17541229385307347	-0.2593703148425787	-0.6026986506746627	1424.1758241758241	-1.0	-1.0	
1.698153575559166E12	4.33695652173913	1.6304347826086956	10.92391304347826	3.0	0.342990342990343	2915.5339805825242	0.11688931297709923	-0.33385019083969464	0.19728053435114504	0.17241379310344826	-0.2383808095952024	-0.6101949025487257	1418.3150183150183	-1.0	-1.0	
1.698153575566978E12	4.33695652173913	1.6304347826086956	10.91304347826087	3.0	0.342990342990343	2915.5339805825242	0.03947996183206107	-0.42259064885496184	0.21385973282442747	0.18140929535232383	-0.2518740629685157	-0.6056971514242878	1412.4542124542124	-1.0	-1.0	
1.69815357557479E12	4.326086956521739	1.6195652173913042	10.92391304347826	3.0	0.342990342990343	2915.5339805825242	0.14408396946564886	-0.6477814885496183	0.21433683206106868	0.17841079460269865	-0.24887556221889054	-0.6056971514242878	1409.5238095238094	-1.0	-1.0	
1.698153575582602E12	4.304347826086956	1.6304347826086956	10.934782608695652	3.0	0.342990342990343	2915.5339805825242	0.0048902671755725186	-0.44155534351145037	0.26001908396946566	0.17841079460269865	-0.24887556221889054	-0.6056971514242878	1408.7912087912086	-1.0	-1.0	
1.698153575590414E12	4.315217391304348	1.641304347826087	10.902173913043478	3.0	0.3434343434343434	2911.764705882353	0.3690362595419847	-0.5118082061068702	0.3796517175572519	0.17691154422788605	-0.25037481259370314	-0.6026986506746627	1410.2564102564102	-1.0	-1.0	
1.6981535755982263E12	4.304347826086956	1.6304347826086956	10.945652173913043	3.0	0.342990342990343	2915.5339805825242	0.15064408396946563	-0.9006440839694656	0.20968511450381677	0.1649175412293853	-0.25337331334332835	-0.6101949025487257	1410.2564102564102	-1.0	-1.0	
1.6981535756060383E12	4.3478260869565215	1.641304347826087	10.92391304347826	3.0	0.342990342990343	2915.5339805825242	0.27146946564885494	-0.3724952290076336	0.04043416030534351	0.17691154422788605	-0.24287856071964017	-0.6026986506746627	1410.2564102564102	-1.0	-1.0	
1.6981535756138503E12	4.380434782608695	1.6521739130434783	10.945652173913043	3.0	0.3438783438783439	2908.005164622337	-0.003936068702290076	-0.3089217557251908	-0.052003816793893126	0.17241379310344826	-0.2608695652173913	-0.6026986506746627	1413.9194139194137	-1.0	-1.0	
1.6981535756216624E12	4.391304347826087	1.6304347826086956	10.956521739130434	3.0	0.342990342990343	2915.5339805825242	0.1940601145038168	-0.12547709923664122	0.11593511450381679	0.17241379310344826	-0.2608695652173913	-0.6026986506746627	1415.3846153846152	-1.0	-1.0	
1.6981535756294744E12	4.4021739130434785	1.641304347826087	10.945652173913043	3.0	0.342990342990343	2915.5339805825242	0.1321564885496183	0.25405534351145037	0.023139312977099237	0.17241379310344826	-0.23238380809595202	-0.5937031484257871	1419.7802197802198	-1.0	-1.0	
1.6981535756372866E12	4.4021739130434785	1.6630434782608696	10.92391304347826	3.0	0.3425463425463426	2919.3130265716136	0.07180343511450381	0.13859732824427481	0.03709446564885496	0.1664167916041979	-0.24137931034482757	-0.6026986506746627	1421.245421245421	-1.0	-1.0	
1.6981535756450986E12	4.391304347826087	1.6630434782608696	10.92391304347826	3.0	0.342990342990343	2915.5339805825242	-0.34064885496183206	-0.007037213740458015	-0.20908874045801526	0.17391304347826086	-0.24287856071964017	-0.6011994002998501	1421.9780219780218	-1.0	-1.0	
1.6981535756529106E12	4.391304347826087	1.6739130434782608	10.934782608695652	3.0	0.342990342990343	2915.5339805825242	-0.4290314885496183	0.40124045801526714	-0.299618320610687	0.1634182908545727	-0.24587706146926536	-0.6071964017991004	1422.7106227106226	-1.0	-1.0	
1.6981535756607227E12	4.391304347826087	1.6630434782608696	10.934782608695652	3.0	0.342990342990343	2915.5339805825242	-0.31810591603053434	0.3375477099236641	-0.34303435114503816	0.1634182908545727	-0.24587706146926536	-0.6071964017991004	1425.6410256410256	-1.0	-1.0	
1.6981535756685347E12	4.4021739130434785	1.6304347826086956	10.934782608695652	3.0	0.342990342990343	2915.5339805825242	-0.375	0.4583730916030534	-0.2168416030534351	0.17241379310344826	-0.239880059970015	-0.5967016491754122	1430.03663003663	-1.0	-1.0	
1.6981535756763467E12	4.369565217391305	1.684782608695652	10.934782608695652	3.0	0.3434343434343434	2911.764705882353	-0.2189885496183206	0.6401479007633587	-0.2483301526717557	0.1619190404797601	-0.2518740629685157	-0.6056971514242878	1432.2344322344322	-1.0	-1.0	
1.698153575684159E12	4.3478260869565215	1.6630434782608696	10.92391304347826	3.0	0.342990342990343	2915.5339805825242	-0.39897423664122134	0.5474713740458015	-0.12678912213740456	0.1649175412293853	-0.24287856071964017	-0.6056971514242878	1432.9670329670328	-1.0	-1.0	
1.698153575691971E12	4.3478260869565215	1.641304347826087	10.91304347826087	3.0	0.3434343434343434	2911.764705882353	-0.42497614503816794	0.45515267175572516	-0.11247614503816794	0.17541229385307347	-0.25037481259370314	-0.6041979010494752	1435.8974358974358	-1.0	-1.0	
1.698153575699783E12	4.33695652173913	1.641304347826087	10.956521739130434	3.0	0.342990342990343	2915.5339805825242	-0.16221374045801526	0.5462786259541984	-0.40326812977099236	0.17541229385307347	-0.25037481259370314	-0.6041979010494752	1436.6300366300366	-1.0	-1.0	
1.698153575707595E12	4.315217391304348	1.6195652173913042	10.92391304347826	3.0	0.3434343434343434	2911.764705882353	-0.19036259541984732	0.35889790076335876	-0.4782919847328244	0.18140929535232383	-0.24437781109445278	-0.608695652173913	1440.2930402930401	-1.0	-1.0	
1.698153575715407E12	4.3478260869565215	1.5978260869565217	10.967391304347826	3.0	0.342990342990343	2915.5339805825242	-0.11259541984732824	0.018726145038167937	-0.12416507633587785	0.17391304347826086	-0.2578710644677661	-0.5967016491754122	1441.0256410256409	-1.0	-1.0	
1.698153575723219E12	4.33695652173913	1.6304347826086956	10.945652173913043	3.0	0.3434343434343434	2911.764705882353	-0.3078482824427481	-0.18427958015267173	-0.19966603053435114	0.17391304347826086	-0.25487256371814093	-0.608695652173913	1443.956043956044	-1.0	-1.0	
1.6981535757310312E12	4.358695652173913	1.576086956521739	10.92391304347826	3.0	0.342990342990343	2915.5339805825242	0.02039599236641221	-0.036378816793893126	-0.02969942748091603	0.17091454272863568	-0.2518740629685157	-0.5922038980509745	1447.6190476190475	-1.0	-1.0	
1.6981535757388433E12	4.358695652173913	1.5978260869565217	10.91304347826087	3.0	0.342990342990343	2915.5339805825242	-0.1606631679389313	0.37010973282442744	-0.058444656488549615	0.17091454272863568	-0.2518740629685157	-0.5922038980509745	1451.2820512820513	-1.0	-1.0	
1.6981535757466553E12	4.369565217391305	1.608695652173913	10.891304347826086	3.0	0.342990342990343	2915.5339805825242	-0.018606870229007633	0.11796278625954199	0.3556774809160305	0.17091454272863568	-0.24287856071964017	-0.608695652173913	1455.6776556776556	-1.0	-1.0	
1.6981535757544673E12	4.358695652173913	1.6304347826086956	10.902173913043478	3.0	0.342990342990343	2915.5339805825242	0.013478053435114504	0.06798664122137404	-0.11808206106870228	0.17391304347826086	-0.24737631184407796	-0.5997001499250375	1456.4102564102564	-1.0	-1.0	
1.6981535757622793E12	4.3478260869565215	1.6304347826086956	10.902173913043478	3.0	0.3425463425463426	2919.3130265716136	-0.4569417938931298	0.07872137404580153	-0.06894083969465649	0.17691154422788605	-0.24737631184407796	-0.6056971514242878	1457.8754578754579	-1.0	-1.0	
1.6981535757700916E12	4.326086956521739	1.6304347826086956	10.92391304347826	3.0	0.342990342990343	2915.5339805825242	-0.35997137404580154	0.13716603053435114	-0.09780534351145037	0.17391304347826086	-0.2368815592203898	-0.6131934032983508	1457.142857142857	-1.0	-1.0	
1.6981535757779036E12	4.33695652173913	1.641304347826087	10.934782608695652	3.0	0.342990342990343	2915.5339805825242	-0.20431774809160305	0.31929866412213737	-0.34064885496183206	0.17391304347826086	-0.2368815592203898	-0.6131934032983508	1455.6776556776556	-1.0	-1.0	
1.6981535757857156E12	4.33695652173913	1.608695652173913	10.934782608695652	3.0	0.342990342990343	2915.5339805825242	-0.2323473282442748	0.07001431297709923	0.11999045801526717	0.1664167916041979	-0.2518740629685157	-0.5907046476761619	1454.9450549450548	-1.0	-1.0	
1.6981535757935276E12	4.326086956521739	1.641304347826087	10.934782608695652	3.0	0.3425463425463426	2919.3130265716136	0.21326335877862596	0.025405534351145037	0.045443702290076333	0.17391304347826086	-0.24137931034482757	-0.5952023988005997	1449.8168498168498	-1.0	-1.0	
1.6981535758013396E12	4.33695652173913	1.6304347826086956	10.934782608695652	3.0	0.342990342990343	2915.5339805825242	-0.3057013358778626	0.0714456106870229	-0.0446087786259542	0.16941529235382308	-0.2383808095952024	-0.6056971514242878	1445.4212454212454	-1.0	-1.0	
1.6981535758091516E12	4.326086956521739	1.641304347826087	10.92391304347826	3.0	0.342990342990343	2915.5339805825242	-0.05892175572519084	-0.04949904580152672	0.21803435114503816	0.16941529235382308	-0.2383808095952024	-0.6056971514242878	1441.0256410256409	-1.0	-1.0	
1.6981535758169639E12	4.3478260869565215	1.641304347826087	10.92391304347826	3.0	0.342990342990343	2915.5339805825242	-0.07263835877862596	-1.1927480916030534E-4	0.06548187022900763	0.17991004497751123	-0.2518740629685157	-0.6056971514242878	1438.8278388278388	-1.0	-1.0	
1.698153575824776E12	4.358695652173913	1.6304347826086956	10.92391304347826	3.0	0.342990342990343	2915.5339805825242	-0.19513358778625953	0.1094942748091603	0.12822041984732824	0.17541229385307347	-0.25487256371814093	-0.6026986506746627	1435.164835164835	-1.0	-1.0	
1.698153575832588E12	4.326086956521739	1.6521739130434783	10.91304347826087	3.0	0.342990342990343	2915.5339805825242	0.09506202290076335	-0.16209446564885496	0.29520515267175573	0.17541229385307347	-0.24887556221889054	-0.6011994002998501	1430.7692307692307	-1.0	-1.0	
1.6981535758404E12	4.326086956521739	1.641304347826087	10.92391304347826	3.0	0.3425463425463426	2919.3130265716136	0.1989503816793893	-0.33862118320610685	0.3113072519083969	0.1664167916041979	-0.2593703148425787	-0.5997001499250375	1425.6410256410256	-1.0	-1.0	
1.698153575848212E12	4.369565217391305	1.6521739130434783	10.92391304347826	3.0	0.342990342990343	2915.5339805825242	-0.09458492366412213	0.28089217557251905	-0.16245229007633588	0.1664167916041979	-0.2593703148425787	-0.5997001499250375	1421.9780219780218	-1.0	-1.0	
1.698153575856024E12	4.369565217391305	1.641304347826087	10.902173913043478	3.0	0.3425463425463426	2919.3130265716136	-0.11020992366412213	0.313692748091603	-0.11855916030534351	0.1664167916041979	-0.24887556221889054	-0.5967016491754122	1420.5128205128203	-1.0	-1.0	
1.6981535758638362E12	4.380434782608695	1.6521739130434783	10.945652173913043	3.0	0.342990342990343	2915.5339805825242	-0.1724713740458015	0.17760019083969464	0.016817748091603052	0.17241379310344826	-0.2518740629685157	-0.5907046476761619	1416.117216117216	-1.0	-1.0	
1.6981535758716482E12	4.358695652173913	1.6195652173913042	10.92391304347826	3.0	0.342990342990343	2915.5339805825242	-0.23568702290076335	0.30009541984732824	0.2459446564885496	0.17241379310344826	-0.25487256371814093	-0.6011994002998501	1411.7216117216117	-1.0	-1.0	
1.6981535758794602E12	4.358695652173913	1.6304347826086956	10.945652173913043	3.0	0.3425463425463426	2919.3130265716136	-0.06619751908396947	0.31154580152671757	0.16686545801526717	0.17991004497751123	-0.24737631184407796	-0.6056971514242878	1406.5934065934066	-1.0	-1.0	
1.6981535758872722E12	4.358695652173913	1.6304347826086956	10.934782608695652	3.0	0.342990342990343	2915.5339805825242	-0.09422709923664122	0.26037690839694655	0.14885496183206107	0.17991004497751123	-0.24737631184407796	-0.6056971514242878	1403.6630036630036	-1.0	-1.0	
1.6981535758950842E12	4.33695652173913	1.641304347826087	10.91304347826087	3.0	0.342990342990343	2915.5339805825242	-0.09482347328244274	0.028029580152671756	0.07025286259541984	0.17091454272863568	-0.24287856071964017	-0.608695652173913	1402.9304029304028	-1.0	-1.0	
1.6981535759028965E12	4.3478260869565215	1.6195652173913042	10.91304347826087	3.0	0.3425463425463426	2919.3130265716136	0.2548902671755725	-0.015386450381679389	0.3728530534351145	0.16941529235382308	-0.2623688155922039	-0.6026986506746627	1398.5347985347985	-1.0	-1.0	
1.6981535759107085E12	4.358695652173913	1.641304347826087	10.934782608695652	3.0	0.342990342990343	2915.5339805825242	-0.22101622137404578	0.22853053435114504	0.36939408396946566	0.17391304347826086	-0.2338830584707646	-0.5907046476761619	1397.069597069597	-1.0	-1.0	
1.6981535759185205E12	4.391304347826087	1.641304347826087	10.92391304347826	3.0	0.3425463425463426	2919.3130265716136	-0.19083969465648853	0.2899570610687023	0.06023377862595419	0.1664167916041979	-0.24887556221889054	-0.6101949025487257	1396.3369963369962	-1.0	-1.0	
1.6981535759263325E12	4.413043478260869	1.6304347826086956	10.891304347826086	3.0	0.342990342990343	2915.5339805825242	-0.17533396946564886	0.2608540076335878	0.24188931297709923	0.1664167916041979	-0.24887556221889054	-0.6101949025487257	1397.8021978021977	-1.0	-1.0	
1.6981535759341445E12	4.413043478260869	1.641304347826087	10.934782608695652	3.0	0.342990342990343	2915.5339805825242	-0.14456106870229007	0.6437261450381679	0.10019083969465649	0.16941529235382308	-0.24287856071964017	-0.6041979010494752	1400.7326007326005	-1.0	-1.0	
1.6981535759419565E12	4.391304347826087	1.641304347826087	10.945652173913043	3.0	0.3425463425463426	2919.3130265716136	-0.41865458015267176	0.8556774809160305	0.20718034351145037	0.16941529235382308	-0.2563718140929535	-0.5982008995502248	1402.9304029304028	-1.0	-1.0	
1.6981535759497688E12	4.358695652173913	1.641304347826087	10.92391304347826	3.0	0.342990342990343	2915.5339805825242	-0.4736402671755725	0.5314885496183206	-0.05450858778625954	0.17091454272863568	-0.24737631184407796	-0.5967016491754122	1405.128205128205	-1.0	-1.0	
1.6981535759575808E12	4.369565217391305	1.6739130434782608	10.934782608695652	3.0	0.3425463425463426	2919.3130265716136	-0.3622375954198473	0.8218034351145038	-0.3441078244274809	0.17241379310344826	-0.2518740629685157	-0.6071964017991004	1407.3260073260071	-1.0	-1.0	
1.6981535759653928E12	4.33695652173913	1.641304347826087	10.91304347826087	3.0	0.342990342990343	2915.5339805825242	-0.2949666030534351	0.4961832061068702	-0.03721374045801527	0.17241379310344826	-0.2518740629685157	-0.6071964017991004	1410.2564102564102	-1.0	-1.0	
1.6981535759732048E12	4.315217391304348	1.6521739130434783	10.956521739130434	3.0	0.3425463425463426	2919.3130265716136	-0.3690362595419847	0.3888358778625954	-0.17223282442748092	0.17391304347826086	-0.2383808095952024	-0.6026986506746627	1414.6520146520145	-1.0	-1.0	
1.6981535759810168E12	4.315217391304348	1.641304347826087	10.92391304347826	3.0	0.3425463425463426	2919.3130265716136	-0.36533874045801523	0.19095896946564886	-0.11044847328244274	0.17091454272863568	-0.24587706146926536	-0.6026986506746627	1416.117216117216	-1.0	-1.0	
1.6981535759888289E12	4.315217391304348	1.6521739130434783	10.92391304347826	3.0	0.342990342990343	2915.5339805825242	0.03625954198473282	-0.13096374045801526	-0.03435114503816794	0.17091454272863568	-0.24287856071964017	-0.6026986506746627	1418.3150183150183	-1.0	-1.0	
1.698153575996641E12	4.326086956521739	1.6304347826086956	10.934782608695652	3.0	0.3425463425463426	2919.3130265716136	-0.2681297709923664	-0.1452767175572519	-0.005963740458015267	0.16941529235382308	-0.2383808095952024	-0.5997001499250375	1420.5128205128203	-1.0	-1.0	
1.6981535760044531E12	4.315217391304348	1.6195652173913042	10.91304347826087	3.0	0.342990342990343	2915.5339805825242	-0.26645992366412213	-0.6180820610687022	0.1635257633587786	0.16941529235382308	-0.2383808095952024	-0.5997001499250375	1421.9780219780218	-1.0	-1.0	
1.6981535760122651E12	4.358695652173913	1.6304347826086956	10.91304347826087	3.0	0.3425463425463426	2919.3130265716136	0.17927003816793893	-0.36700858778625955	-0.005605916030534351	0.16941529235382308	-0.2338830584707646	-0.5997001499250375	1424.9084249084249	-1.0	-1.0	
1.6981535760200771E12	4.3478260869565215	1.6195652173913042	10.91304347826087	3.0	0.342990342990343	2915.5339805825242	0.07347328244274809	0.002504770992366412	-0.11032919847328244	0.15742128935532235	-0.24137931034482757	-0.5997001499250375	1424.1758241758241	-1.0	-1.0	
1.6981535760278892E12	4.369565217391305	1.6195652173913042	10.902173913043478	3.0	0.3425463425463426	2919.3130265716136	-0.16877385496183206	0.3525763358778626	-0.2907919847328244	0.17541229385307347	-0.2563718140929535	-0.6026986506746627	1423.4432234432234	-1.0	-1.0	
1.6981535760357014E12	4.380434782608695	1.6521739130434783	10.91304347826087	3.0	0.3425463425463426	2919.3130265716136	-0.01276240458015267	0.4578959923664122	-0.3969465648854962	0.16941529235382308	-0.2593703148425787	-0.6101949025487257	1423.4432234432234	-1.0	-1.0	
1.6981535760435134E12	4.369565217391305	1.6195652173913042	10.91304347826087	3.0	0.342990342990343	2915.5339805825242	-0.2260257633587786	0.7612118320610687	-0.20956583969465647	0.16941529235382308	-0.2593703148425787	-0.6101949025487257	1425.6410256410256	-1.0	-1.0	
1.6981535760513254E12	4.3478260869565215	1.641304347826087	10.91304347826087	3.0	0.342990342990343	2915.5339805825242	-0.3908635496183206	0.29842557251908397	-0.17545324427480916	0.17241379310344826	-0.24887556221889054	-0.5967016491754122	1427.8388278388277	-1.0	-1.0	
1.6981535760591375E12	4.3478260869565215	1.641304347826087	10.91304347826087	3.0	0.3425463425463426	2919.3130265716136	-0.05248091603053435	0.2825620229007633	-0.24713740458015265	0.17991004497751123	-0.2353823088455772	-0.5907046476761619	1426.3736263736262	-1.0	-1.0	
1.6981535760669495E12	4.33695652173913	1.6304347826086956	10.956521739130434	3.0	0.3425463425463426	2919.3130265716136	-0.1430104961832061	0.3260973282442748	0.032204198473282444	0.1679160419790105	-0.24587706146926536	-0.6071964017991004	1422.7106227106226	-1.0	-1.0	
1.6981535760747615E12	4.3478260869565215	1.641304347826087	10.956521739130434	3.0	0.3425463425463426	2919.3130265716136	-0.15744274809160305	0.258587786259542	-0.24021946564885496	0.17391304347826086	-0.24587706146926536	-0.6026986506746627	1417.5824175824175	-1.0	-1.0	
1.6981535760825737E12	4.33695652173913	1.641304347826087	10.945652173913043	3.0	0.3425463425463426	2919.3130265716136	-0.2322280534351145	0.20932729007633588	-0.08432729007633588	0.17391304347826086	-0.24587706146926536	-0.6026986506746627	1412.4542124542124	-1.0	-1.0	
1.6981535760903857E12	4.3478260869565215	1.641304347826087	10.945652173913043	3.0	0.3425463425463426	2919.3130265716136	-0.20014312977099236	0.2213740458015267	-0.17294847328244276	0.17541229385307347	-0.24587706146926536	-0.5907046476761619	1408.7912087912086	-1.0	-1.0	
1.6981535760981978E12	4.3478260869565215	1.641304347826087	10.91304347826087	3.0	0.3425463425463426	2919.3130265716136	-0.38418416030534347	0.2955629770992366	-0.12344942748091603	0.17991004497751123	-0.239880059970015	-0.5907046476761619	1402.9304029304028	-1.0	-1.0	
1.6981535761060098E12	4.358695652173913	1.6304347826086956	10.91304347826087	3.0	0.3425463425463426	2919.3130265716136	-0.30486641221374045	0.1387166030534351	0.06094942748091603	0.15742128935532235	-0.24737631184407796	-0.6056971514242878	1399.2673992673992	-1.0	-1.0	
1.6981535761138218E12	4.33695652173913	1.6195652173913042	10.92391304347826	3.0	0.342990342990343	2915.5339805825242	-0.5	0.12046755725190839	0.043654580152671756	0.17091454272863568	-0.25487256371814093	-0.616191904047976	1397.8021978021977	-1.0	-1.0	
1.6981535761216338E12	4.358695652173913	1.6304347826086956	10.934782608695652	3.0	0.3425463425463426	2919.3130265716136	-0.4521708015267175	0.4268845419847328	-0.18666507633587787	0.17091454272863568	-0.25487256371814093	-0.616191904047976	1397.8021978021977	-1.0	-1.0	
1.698153576129446E12	4.3478260869565215	1.608695652173913	10.934782608695652	3.0	0.3425463425463426	2919.3130265716136	-0.6630486641221374	0.45718034351145037	-0.03280057251908397	0.17391304347826086	-0.24137931034482757	-0.5907046476761619	1402.9304029304028	-1.0	-1.0	
1.698153576137258E12	4.358695652173913	1.608695652173913	10.92391304347826	3.0	0.3425463425463426	2919.3130265716136	-0.5345896946564885	0.6855916030534351	-0.35436545801526714	0.17541229385307347	-0.25487256371814093	-0.6026986506746627	1408.058608058608	-1.0	-1.0	
1.69815357614507E12	4.3478260869565215	1.6304347826086956	10.91304347826087	3.0	0.3425463425463426	2919.3130265716136	-0.30248091603053434	0.5604723282442748	-0.04604007633587786	0.1679160419790105	-0.25037481259370314	-0.608695652173913	1412.4542124542124	-1.0	-1.0	
1.698153576152882E12	4.326086956521739	1.608695652173913	10.92391304347826	3.0	0.3425463425463426	2919.3130265716136	-0.43499522900763354	0.09923664122137404	-0.13955152671755724	0.16941529235382308	-0.24287856071964017	-0.6041979010494752	1415.3846153846152	-1.0	-1.0	
1.698153576160694E12	4.260869565217392	1.6195652173913042	10.945652173913043	3.0	0.3425463425463426	2919.3130265716136	-0.6471851145038168	-0.021588740458015267	-0.3859732824427481	0.16941529235382308	-0.24287856071964017	-0.6041979010494752	1416.117216117216	-1.0	-1.0	
1.6981535761685063E12	4.304347826086956	1.608695652173913	10.945652173913043	3.0	0.3425463425463426	2919.3130265716136	-0.32013358778625955	0.23819179389312975	-0.3975429389312977	0.17391304347826086	-0.2338830584707646	-0.5967016491754122	1419.7802197802198	-1.0	-1.0	
1.6981535761763184E12	4.3478260869565215	1.6195652173913042	10.91304347826087	3.0	0.3425463425463426	2919.3130265716136	-0.19489503816793893	-0.17712309160305342	0.0027433206106870227	0.16941529235382308	-0.2518740629685157	-0.6056971514242878	1421.245421245421	-1.0	-1.0	
1.6981535761841304E12	4.33695652173913	1.6521739130434783	10.945652173913043	3.0	0.3421023421023421	2923.1018818948737	-0.2993797709923664	-0.06929866412213741	0.01824904580152672	0.16941529235382308	-0.24587706146926536	-0.608695652173913	1420.5128205128203	-1.0	-1.0	
1.6981535761919424E12	4.358695652173913	1.6521739130434783	10.945652173913043	3.0	0.3425463425463426	2919.3130265716136	-0.2212547709923664	-0.4806774809160305	0.29281965648854963	0.17841079460269865	-0.2563718140929535	-0.608695652173913	1420.5128205128203	-1.0	-1.0	
1.6981535761997544E12	4.358695652173913	1.6630434782608696	10.945652173913043	3.0	0.3425463425463426	2919.3130265716136	-0.09923664122137404	-0.12488072519083969	0.15458015267175573	0.17841079460269865	-0.2563718140929535	-0.608695652173913	1421.9780219780218	-1.0	-1.0	
1.6981535762075664E12	4.391304347826087	1.6521739130434783	10.934782608695652	3.0	0.342990342990343	2915.5339805825242	-0.14241412213740456	0.13501908396946563	0.3374284351145038	0.1649175412293853	-0.24137931034482757	-0.6116941529235382	1425.6410256410256	-1.0	-1.0	
1.6981535762153787E12	4.4021739130434785	1.6521739130434783	10.902173913043478	3.0	0.3425463425463426	2919.3130265716136	-0.18487595419847327	0.10460400763358778	0.2901956106870229	0.17391304347826086	-0.25487256371814093	-0.6146926536731634	1428.5714285714284	-1.0	-1.0	
1.6981535762231907E12	4.4021739130434785	1.641304347826087	10.934782608695652	3.0	0.3425463425463426	2919.3130265716136	-0.33623568702290074	0.2885257633587786	0.3345658396946565	0.1664167916041979	-0.25037481259370314	-0.6011994002998501	1435.164835164835	-1.0	-1.0	
1.6981535762310027E12	4.380434782608695	1.641304347826087	10.902173913043478	3.0	0.342990342990343	2915.5339805825242	-0.10508110687022901	0.14873568702290077	0.25584446564885494	0.17541229385307347	-0.25037481259370314	-0.608695652173913	1445.4212454212454	-1.0	-1.0	
1.6981535762388147E12	4.369565217391305	1.6630434782608696	10.902173913043478	3.0	0.3425463425463426	2919.3130265716136	-0.05856393129770992	-0.05057251908396947	0.011211832061068702	0.17541229385307347	-0.25037481259370314	-0.608695652173913	1457.142857142857	-1.0	-1.0	
1.6981535762466267E12	4.380434782608695	1.641304347826087	10.92391304347826	3.0	0.3425463425463426	2919.3130265716136	0.1877385496183206	-0.15553435114503816	0.08742843511450381	0.17541229385307347	-0.24587706146926536	-0.608695652173913	1471.7948717948716	-1.0	-1.0	
1.6981535762544387E12	4.358695652173913	1.6304347826086956	10.945652173913043	3.0	0.3421023421023421	2923.1018818948737	0.09446564885496182	-0.07848282442748092	0.17748091603053434	0.1664167916041979	-0.24587706146926536	-0.5967016491754122	1484.2490842490843	-1.0	-1.0	
1.698153576262251E12	4.358695652173913	1.641304347826087	10.92391304347826	3.0	0.3421023421023421	2923.1018818948737	0.03399332061068702	-0.12392652671755724	0.20718034351145037	0.17241379310344826	-0.24437781109445278	-0.608695652173913	1496.7032967032967	-1.0	-1.0	
1.698153576270063E12	4.358695652173913	1.6304347826086956	10.91304347826087	3.0	0.3425463425463426	2919.3130265716136	0.017056297709923663	-0.0491412213740458	0.03816793893129771	0.17391304347826086	-0.24137931034482757	-0.6176911544227885	1507.6923076923076	-1.0	-1.0	
1.698153576277875E12	4.380434782608695	1.641304347826087	10.934782608695652	3.0	0.3425463425463426	2919.3130265716136	0.13907442748091603	0.17497614503816794	-0.329317748091603	0.17391304347826086	-0.24137931034482757	-0.6176911544227885	1515.018315018315	-1.0	-1.0	
1.698153576285687E12	4.380434782608695	1.6195652173913042	10.92391304347826	3.0	0.3425463425463426	2919.3130265716136	0.047709923664122134	0.15183683206106868	-0.25155057251908397	0.17541229385307347	-0.24737631184407796	-0.608695652173913	1521.6117216117216	-1.0	-1.0	
1.698153576293499E12	4.358695652173913	1.6195652173913042	10.91304347826087	3.0	0.3421023421023421	2923.1018818948737	-0.3645038167938931	0.05260019083969465	-0.2501192748091603	0.1664167916041979	-0.24137931034482757	-0.6041979010494752	1525.2747252747251	-1.0	-1.0	
1.6981535763013113E12	4.3478260869565215	1.608695652173913	10.934782608695652	3.0	0.3425463425463426	2919.3130265716136	0.004413167938931297	0.3042700381679389	-0.43225190839694655	0.17241379310344826	-0.24587706146926536	-0.6041979010494752	1530.4029304029302	-1.0	-1.0	
1.6981535763091233E12	4.3478260869565215	1.5978260869565217	10.945652173913043	3.0	0.3425463425463426	2919.3130265716136	-0.05474713740458015	0.4171040076335878	-0.3377862595419847	0.17091454272863568	-0.25037481259370314	-0.6071964017991004	1533.3333333333333	-1.0	-1.0	
1.6981535763169353E12	4.358695652173913	1.608695652173913	10.91304347826087	3.0	0.3425463425463426	2919.3130265716136	0.021827290076335878	0.5026240458015268	-0.42736164122137404	0.17091454272863568	-0.25037481259370314	-0.6071964017991004	1534.7985347985348	-1.0	-1.0	
1.6981535763247473E12	4.33695652173913	1.5869565217391304	10.92391304347826	3.0	0.3421023421023421	2923.1018818948737	0.0848043893129771	0.10078721374045801	-0.043654580152671756	0.17541229385307347	-0.24287856071964017	-0.6026986506746627	1534.065934065934	-1.0	-1.0	
1.6981535763325593E12	4.326086956521739	1.641304347826087	10.945652173913043	3.0	0.3425463425463426	2919.3130265716136	-0.17175572519083968	-0.1894083969465649	-0.3043893129770992	0.1679160419790105	-0.22188905547226387	-0.6026986506746627	1528.2051282051282	-1.0	-1.0	
1.6981535763403713E12	4.293478260869565	1.608695652173913	10.934782608695652	3.0	0.3425463425463426	2919.3130265716136	0.02838740458015267	0.1496898854961832	-0.42485687022900764	0.17541229385307347	-0.2338830584707646	-0.5997001499250375	1520.8791208791208	-1.0	-1.0	
1.6981535763481836E12	4.304347826086956	1.6304347826086956	10.92391304347826	3.0	0.3421023421023421	2923.1018818948737	-0.0759780534351145	-0.27826812977099236	-0.11772423664122136	0.17991004497751123	-0.24737631184407796	-0.6071964017991004	1512.087912087912	-1.0	-1.0	
1.6981535763559956E12	4.293478260869565	1.608695652173913	10.956521739130434	3.0	0.3425463425463426	2919.3130265716136	-0.012046755725190839	-0.23103530534351144	-0.03769083969465649	0.17991004497751123	-0.24737631184407796	-0.6071964017991004	1503.2967032967033	-1.0	-1.0	
1.6981535763638076E12	4.304347826086956	1.6304347826086956	10.934782608695652	3.0	0.3425463425463426	2919.3130265716136	0.08396946564885496	-0.16937022900763357	0.46839217557251905	0.1679160419790105	-0.24737631184407796	-0.6131934032983508	1497.4358974358972	-1.0	-1.0	
1.6981535763716196E12	4.315217391304348	1.608695652173913	10.967391304347826	3.0	0.3425463425463426	2919.3130265716136	0.2837547709923664	-0.36855916030534347	0.16269083969465647	0.16941529235382308	-0.2383808095952024	-0.6041979010494752	1487.9120879120878	-1.0	-1.0	
1.6981535763794316E12	4.315217391304348	1.6195652173913042	10.956521739130434	3.0	0.342990342990343	2915.5339805825242	0.23843034351145037	-0.12213740458015267	0.21087786259541985	0.18440779610194902	-0.24737631184407796	-0.6146926536731634	1478.3882783882782	-1.0	-1.0	
1.6981535763872437E12	4.3478260869565215	1.6195652173913042	10.92391304347826	3.0	0.3425463425463426	2919.3130265716136	0.2255486641221374	-0.36987118320610685	0.2863788167938931	0.1679160419790105	-0.2518740629685157	-0.6116941529235382	1471.7948717948716	-1.0	-1.0	
1.698153576395056E12	4.315217391304348	1.641304347826087	10.92391304347826	3.0	0.3425463425463426	2919.3130265716136	0.08969465648854962	-0.570729961832061	0.009899809160305343	0.1679160419790105	-0.2518740629685157	-0.6116941529235382	1467.3992673992673	-1.0	-1.0	
1.698153576402868E12	4.326086956521739	1.6304347826086956	10.945652173913043	3.0	0.3425463425463426	2919.3130265716136	0.19680343511450382	-0.37476145038167935	0.5145515267175572	0.17391304347826086	-0.24287856071964017	-0.6071964017991004	1464.4688644688645	-1.0	-1.0	
1.69815357641068E12	4.304347826086956	1.6195652173913042	10.92391304347826	3.0	0.3425463425463426	2919.3130265716136	0.2746898854961832	-0.36128339694656486	-0.006440839694656488	0.17391304347826086	-0.25037481259370314	-0.6026986506746627	1458.6080586080584	-1.0	-1.0	
1.698153576418492E12	4.3478260869565215	1.608695652173913	10.91304347826087	3.0	0.3421023421023421	2923.1018818948737	0.015386450381679389	-0.6221374045801527	0.39134064885496184	0.1634182908545727	-0.24137931034482757	-0.6131934032983508	1452.7472527472526	-1.0	-1.0	
1.698153576426304E12	4.326086956521739	1.641304347826087	10.902173913043478	3.0	0.3425463425463426	2919.3130265716136	0.24427480916030533	-0.8654580152671756	0.31226145038167935	0.17391304347826086	-0.24137931034482757	-0.5997001499250375	1450.5494505494505	-1.0	-1.0	
1.698153576434116E12	4.358695652173913	1.6630434782608696	10.956521739130434	3.0	0.3425463425463426	2919.3130265716136	0.36700858778625955	-0.9243797709923663	0.4024332061068702	0.17391304347826086	-0.24137931034482757	-0.5997001499250375	1450.5494505494505	-1.0	-1.0	
1.6981535764419282E12	4.33695652173913	1.6630434782608696	10.956521739130434	3.0	0.3425463425463426	2919.3130265716136	0.05725190839694656	-0.5353053435114503	0.06238072519083969	0.17841079460269865	-0.2593703148425787	-0.6071964017991004	1450.5494505494505	-1.0	-1.0	
1.6981535764497402E12	4.369565217391305	1.6521739130434783	10.91304347826087	3.0	0.3421023421023421	2923.1018818948737	-0.06345419847328244	-0.3462547709923664	-0.35162213740458015	0.17991004497751123	-0.2368815592203898	-0.6146926536731634	1448.3516483516482	-1.0	-1.0	
1.6981535764575522E12	4.380434782608695	1.6739130434782608	10.92391304347826	3.0	0.3425463425463426	2919.3130265716136	0.15291030534351144	-0.17521469465648853	-0.22674141221374045	0.1649175412293853	-0.24437781109445278	-0.6071964017991004	1447.6190476190475	-1.0	-1.0	
1.6981535764653643E12	4.391304347826087	1.6739130434782608	10.934782608695652	3.0	0.3425463425463426	2919.3130265716136	-0.21266698473282442	0.02480916030534351	-0.2560830152671756	0.1679160419790105	-0.239880059970015	-0.5982008995502248	1445.4212454212454	-1.0	-1.0	
1.6981535764731763E12	4.413043478260869	1.6630434782608696	10.934782608695652	3.0	0.3425463425463426	2919.3130265716136	-0.2260257633587786	0.1784351145038168	-0.1851145038167939	0.1679160419790105	-0.239880059970015	-0.5982008995502248	1443.956043956044	-1.0	-1.0	
1.6981535764809885E12	4.380434782608695	1.6521739130434783	10.934782608695652	3.0	0.3421023421023421	2923.1018818948737	-0.03995706106870229	0.39360687022900764	-0.43439885496183206	0.1829085457271364	-0.2518740629685157	-0.6026986506746627	1443.2234432234432	-1.0	-1.0	
1.6981535764888005E12	4.369565217391305	1.6521739130434783	10.934782608695652	3.0	0.3425463425463426	2919.3130265716136	-0.14658874045801526	0.5768129770992366	-0.33969465648854963	0.17091454272863568	-0.2608695652173913	-0.6041979010494752	1441.7582417582416	-1.0	-1.0	
1.6981535764966125E12	4.369565217391305	1.6521739130434783	10.902173913043478	3.0	0.3425463425463426	2919.3130265716136	-0.35913645038167935	0.4985687022900763	-0.5065601145038168	0.17841079460269865	-0.2338830584707646	-0.5997001499250375	1442.4908424908424	-1.0	-1.0	
1.6981535765044246E12	4.358695652173913	1.6304347826086956	10.91304347826087	3.0	0.3425463425463426	2919.3130265716136	-0.38656965648854963	0.5534351145038168	-0.44072041984732824	0.17841079460269865	-0.2338830584707646	-0.5997001499250375	1444.6886446886447	-1.0	-1.0	
1.6981535765122366E12	4.326086956521739	1.6195652173913042	10.934782608695652	3.0	0.3421023421023421	2923.1018818948737	-0.5491412213740458	0.13692748091603052	-0.5139551526717557	0.1679160419790105	-0.23238380809595202	-0.5997001499250375	1446.8864468864467	-1.0	-1.0	
1.6981535765200486E12	4.326086956521739	1.6195652173913042	10.91304347826087	3.0	0.3421023421023421	2923.1018818948737	-0.12845896946564886	-0.08170324427480916	-0.5388835877862596	0.17541229385307347	-0.24287856071964017	-0.6026986506746627	1449.084249084249	-1.0	-1.0	
1.6981535765278608E12	4.3478260869565215	1.608695652173913	10.934782608695652	3.0	0.3425463425463426	2919.3130265716136	-0.40112118320610685	0.12845896946564886	-0.4734017175572519	0.17241379310344826	-0.25337331334332835	-0.6131934032983508	1452.014652014652	-1.0	-1.0	
1.6981535765356729E12	4.380434782608695	1.6195652173913042	10.880434782608695	3.0	0.3421023421023421	2923.1018818948737	-0.38096374045801523	0.12464217557251908	-0.16376431297709923	0.1664167916041979	-0.25037481259370314	-0.6041979010494752	1455.6776556776556	-1.0	-1.0	
1.6981535765434849E12	4.391304347826087	1.6304347826086956	10.92391304347826	3.0	0.3421023421023421	2923.1018818948737	0.005844465648854962	-0.16901240458015265	-0.18964694656488548	0.1664167916041979	-0.25037481259370314	-0.6041979010494752	1458.6080586080584	-1.0	-1.0	
1.6981535765512969E12	4.380434782608695	1.641304347826087	10.934782608695652	3.0	0.3421023421023421	2923.1018818948737	-0.023139312977099237	-0.09208015267175572	-0.17259064885496184	0.16941529235382308	-0.2368815592203898	-0.6056971514242878	1461.5384615384614	-1.0	-1.0	
1.698153576559109E12	4.326086956521739	1.6195652173913042	10.91304347826087	3.0	0.3421023421023421	2923.1018818948737	-0.3102337786259542	-0.30701335877862596	-0.261331106870229	0.1619190404797601	-0.2368815592203898	-0.608695652173913	1461.5384615384614	-1.0	-1.0	
1.698153576566921E12	4.33695652173913	1.6304347826086956	10.91304347826087	3.0	0.3425463425463426	2919.3130265716136	0.13752385496183206	0.11939408396946564	-0.6542223282442747	0.17541229385307347	-0.26686656671664166	-0.5877061469265367	1464.4688644688645	-1.0	-1.0	
1.6981535765747332E12	4.3478260869565215	1.6304347826086956	10.869565217391305	3.0	0.3421023421023421	2923.1018818948737	0.12321087786259541	-0.20634541984732824	-0.20419847328244273	0.1679160419790105	-0.25037481259370314	-0.6071964017991004	1468.131868131868	-1.0	-1.0	
1.6981535765825452E12	4.33695652173913	1.6521739130434783	10.934782608695652	3.0	0.3421023421023421	2923.1018818948737	0.17092080152671754	-0.16495706106870228	-0.0019083969465648854	0.1679160419790105	-0.25037481259370314	-0.6071964017991004	1470.3296703296703	-1.0	-1.0	
1.6981535765903572E12	4.3478260869565215	1.6195652173913042	10.956521739130434	3.0	0.3425463425463426	2919.3130265716136	0.2324666030534351	-0.35138358778625955	-0.09088740458015267	0.1649175412293853	-0.239880059970015	-0.6101949025487257	1471.062271062271	-1.0	-1.0	
1.6981535765981692E12	4.315217391304348	1.6195652173913042	10.945652173913043	3.0	0.3425463425463426	2919.3130265716136	0.1742604961832061	-0.78125	0.24928435114503816	0.17691154422788605	-0.24437781109445278	-0.6071964017991004	1468.8644688644688	-1.0	-1.0	
1.6981535766059812E12	4.326086956521739	1.6195652173913042	10.92391304347826	3.0	0.342990342990343	2915.5339805825242	-0.15994751908396945	-0.41698473282442744	-0.3305104961832061	0.17691154422788605	-0.24287856071964017	-0.6011994002998501	1465.9340659340658	-1.0	-1.0	
1.6981535766137935E12	4.358695652173913	1.5978260869565217	10.934782608695652	3.0	0.3425463425463426	2919.3130265716136	0.04377385496183206	-0.46374045801526714	-0.05212309160305343	0.1829085457271364	-0.2623688155922039	-0.5952023988005997	1461.5384615384614	-1.0	-1.0	
1.6981535766216055E12	4.358695652173913	1.608695652173913	10.92391304347826	3.0	0.3421023421023421	2923.1018818948737	0.014790076335877861	-0.32645515267175573	-0.0514074427480916	0.1829085457271364	-0.2623688155922039	-0.5952023988005997	1456.4102564102564	-1.0	-1.0	
1.6981535766294175E12	4.391304347826087	1.608695652173913	10.91304347826087	3.0	0.3425463425463426	2919.3130265716136	0.125	-0.677361641221374	0.05749045801526717	0.17391304347826086	-0.24137931034482757	-0.6011994002998501	1453.4798534798533	-1.0	-1.0	
1.6981535766372295E12	4.358695652173913	1.608695652173913	10.92391304347826	3.0	0.3421023421023421	2923.1018818948737	0.1880963740458015	-0.5034589694656488	0.02743320610687023	0.17691154422788605	-0.24137931034482757	-0.6041979010494752	1449.084249084249	-1.0	-1.0	
1.6981535766450415E12	4.369565217391305	1.6195652173913042	10.92391304347826	3.0	0.3425463425463426	2919.3130265716136	0.09756679389312976	-0.5912452290076335	-0.0022662213740458014	0.16941529235382308	-0.25337331334332835	-0.6071964017991004	1446.153846153846	-1.0	-1.0	
1.6981535766528535E12	4.380434782608695	1.6195652173913042	10.91304347826087	3.0	0.3421023421023421	2923.1018818948737	0.23354007633587787	-0.4351145038167939	0.012166030534351144	0.17841079460269865	-0.24437781109445278	-0.6101949025487257	1446.8864468864467	-1.0	-1.0	
1.6981535766606658E12	4.3478260869565215	1.6521739130434783	10.91304347826087	3.0	0.3425463425463426	2919.3130265716136	0.10818225190839695	-0.5822996183206106	0.1631679389312977	0.17841079460269865	-0.24437781109445278	-0.6101949025487257	1448.3516483516482	-1.0	-1.0	
1.6981535766684778E12	4.3478260869565215	1.6739130434782608	10.934782608695652	3.0	0.3421023421023421	2923.1018818948737	0.06094942748091603	-0.45395992366412213	0.053077290076335874	0.1679160419790105	-0.25337331334332835	-0.6131934032983508	1449.8168498168498	-1.0	-1.0	
1.6981535766762898E12	4.3478260869565215	1.6304347826086956	10.92391304347826	3.0	0.3421023421023421	2923.1018818948737	0.028864503816793893	-0.7683683206106869	-0.009422709923664122	0.17541229385307347	-0.25037481259370314	-0.5982008995502248	1449.084249084249	-1.0	-1.0	
1.6981535766841018E12	4.369565217391305	1.684782608695652	10.978260869565217	3.0	0.3425463425463426	2919.3130265716136	0.22721851145038166	-0.46815362595419846	-0.13275286259541985	0.17541229385307347	-0.24887556221889054	-0.6056971514242878	1443.956043956044	-1.0	-1.0	
1.6981535766919138E12	4.3478260869565215	1.6304347826086956	10.92391304347826	3.0	0.3421023421023421	2923.1018818948737	0.2393845419847328	-3.9724475190839694	0.4023139312977099	0.17541229385307347	-0.2593703148425787	-0.6131934032983508	1438.095238095238	-1.0	-1.0	
1.6981535766997258E12	4.3478260869565215	1.6630434782608696	10.92391304347826	3.0	0.3421023421023421	2923.1018818948737	0.2817270992366412	-2.763000954198473	0.2921040076335878	0.17541229385307347	-0.2593703148425787	-0.6131934032983508	1434.4322344322343	-1.0	-1.0	
1.698153576707538E12	4.380434782608695	1.6739130434782608	10.934782608695652	3.0	0.3425463425463426	2919.3130265716136	0.29520515267175573	-2.2337786259541983	0.2873330152671756	0.1679160419790105	-0.2338830584707646	-0.6041979010494752	1432.2344322344322	-1.0	-1.0	
1.69815357671535E12	4.4021739130434785	1.6630434782608696	10.945652173913043	3.0	0.3421023421023421	2923.1018818948737	-0.2412929389312977	-0.916030534351145	0.17509541984732824	0.17241379310344826	-0.24737631184407796	-0.5982008995502248	1427.8388278388277	-1.0	-1.0	
1.698153576723162E12	4.445652173913043	1.6630434782608696	10.92391304347826	3.0	0.3421023421023421	2923.1018818948737	-0.08599713740458015	-0.3286020992366412	0.15803912213740456	0.16041979010494753	-0.2578710644677661	-0.5967016491754122	1424.9084249084249	-1.0	-1.0	
1.698153576730974E12	4.467391304347826	1.6304347826086956	10.91304347826087	3.0	0.34165834165834164	2926.9005847953217	-0.1471851145038168	0.1611402671755725	-0.1495706106870229	0.16941529235382308	-0.22788605697151423	-0.5997001499250375	1421.9780219780218	-1.0	-1.0	
1.6981535767387861E12	4.445652173913043	1.6521739130434783	10.891304347826086	3.0	0.3421023421023421	2923.1018818948737	-0.4649332061068702	-0.13036736641221375	-0.0870706106870229	0.16941529235382308	-0.22788605697151423	-0.5997001499250375	1420.5128205128203	-1.0	-1.0	
1.6981535767465984E12	4.423913043478261	1.641304347826087	10.92391304347826	3.0	0.3421023421023421	2923.1018818948737	-0.18618797709923662	0.04162690839694656	-0.3153625954198473	0.16941529235382308	-0.24737631184407796	-0.6116941529235382	1420.5128205128203	-1.0	-1.0	
1.6981535767544104E12	4.4021739130434785	1.6739130434782608	10.902173913043478	3.0	0.3421023421023421	2923.1018818948737	-0.48866889312977096	0.3172709923664122	-0.23330152671755724	0.1679160419790105	-0.24587706146926536	-0.6056971514242878	1419.047619047619	-1.0	-1.0	
1.6981535767622224E12	4.3478260869565215	1.6630434782608696	10.902173913043478	3.0	0.3421023421023421	2923.1018818948737	0.1275047709923664	0.31560114503816794	-0.26240458015267176	0.17541229385307347	-0.24587706146926536	-0.608695652173913	1417.5824175824175	-1.0	-1.0	
1.6981535767700344E12	4.33695652173913	1.6521739130434783	10.945652173913043	3.0	0.3421023421023421	2923.1018818948737	0.33826335877862596	0.25298187022900764	-0.27564408396946566	0.16941529235382308	-0.24887556221889054	-0.6026986506746627	1418.3150183150183	-1.0	-1.0	
1.6981535767778464E12	4.358695652173913	1.641304347826087	10.945652173913043	3.0	0.3425463425463426	2919.3130265716136	-0.29162690839694655	0.4355916030534351	-0.27373568702290074	0.16941529235382308	-0.24887556221889054	-0.6026986506746627	1419.047619047619	-1.0	-1.0	
1.6981535767856584E12	4.3478260869565215	1.6630434782608696	10.989130434782608	3.0	0.3425463425463426	2919.3130265716136	-0.3352814885496183	0.06858301526717557	-0.136331106870229	0.1664167916041979	-0.2338830584707646	-0.6056971514242878	1423.4432234432234	-1.0	-1.0	
1.6981535767934707E12	4.3478260869565215	1.641304347826087	10.934782608695652	3.0	0.3421023421023421	2923.1018818948737	-0.2719465648854962	0.160543893129771	-0.3475667938931298	0.1679160419790105	-0.2368815592203898	-0.6071964017991004	1425.6410256410256	-1.0	-1.0	
1.6981535768012827E12	4.369565217391305	1.6521739130434783	10.934782608695652	3.0	0.3421023421023421	2923.1018818948737	-0.06822519083969465	0.28196564885496184	-0.08444656488549618	0.16941529235382308	-0.2578710644677661	-0.5997001499250375	1430.7692307692307	-1.0	-1.0	
1.6981535768090947E12	4.391304347826087	1.6304347826086956	10.92391304347826	3.0	0.3421023421023421	2923.1018818948737	-0.328125	0.23485209923664122	0.08432729007633588	0.17541229385307347	-0.24437781109445278	-0.6056971514242878	1435.8974358974358	-1.0	-1.0	
1.6981535768169067E12	4.391304347826087	1.6195652173913042	10.902173913043478	3.0	0.3421023421023421	2923.1018818948737	-0.0802719465648855	-0.011331106870229007	0.16221374045801526	0.17541229385307347	-0.24437781109445278	-0.6056971514242878	1440.2930402930401	-1.0	-1.0	
1.6981535768247188E12	4.380434782608695	1.608695652173913	10.902173913043478	3.0	0.3421023421023421	2923.1018818948737	-0.21612595419847327	0.12643129770992365	-0.12810114503816794	0.16941529235382308	-0.24137931034482757	-0.6056971514242878	1444.6886446886447	-1.0	-1.0	
1.6981535768325308E12	4.391304347826087	1.608695652173913	10.902173913043478	3.0	0.3425463425463426	2919.3130265716136	-0.3060591603053435	0.3555582061068702	-0.1255963740458015	0.17241379310344826	-0.24287856071964017	-0.5982008995502248	1446.8864468864467	-1.0	-1.0	
1.698153576840343E12	4.380434782608695	1.576086956521739	10.891304347826086	3.0	0.3421023421023421	2923.1018818948737	-0.2098043893129771	0.04639790076335878	-0.22864980916030533	0.17091454272863568	-0.24437781109445278	-0.5997001499250375	1446.153846153846	-1.0	-1.0	
1.698153576848155E12	4.369565217391305	1.6195652173913042	10.902173913043478	3.0	0.3421023421023421	2923.1018818948737	-0.29663645038167935	0.3030772900763359	-0.11700858778625954	0.17691154422788605	-0.2383808095952024	-0.6026986506746627	1443.2234432234432	-1.0	-1.0	
1.698153576855967E12	4.358695652173913	1.6195652173913042	10.934782608695652	3.0	0.3421023421023421	2923.1018818948737	-0.5529580152671756	-0.002385496183206107	-0.009899809160305343	0.17691154422788605	-0.2383808095952024	-0.6026986506746627	1439.5604395604394	-1.0	-1.0	
1.698153576863779E12	4.358695652173913	1.6195652173913042	10.91304347826087	3.0	0.3421023421023421	2923.1018818948737	-0.16614980916030533	0.045920801526717556	-0.04067270992366412	0.16941529235382308	-0.22938530734632684	-0.5997001499250375	1436.6300366300366	-1.0	-1.0	
1.698153576871591E12	4.3478260869565215	1.6304347826086956	10.934782608695652	3.0	0.3421023421023421	2923.1018818948737	-0.011808206106870228	0.016459923664122137	-0.05486641221374046	0.16941529235382308	-0.24437781109445278	-0.6011994002998501	1431.5018315018315	-1.0	-1.0	
1.6981535768794033E12	4.3478260869565215	1.6630434782608696	10.934782608695652	3.0	0.3421023421023421	2923.1018818948737	-0.16447996183206107	-0.10341125954198473	-0.2503578244274809	0.15592203898050974	-0.2698650674662669	-0.6041979010494752	1427.106227106227	-1.0	-1.0	
1.6981535768872153E12	4.3478260869565215	1.6521739130434783	10.945652173913043	3.0	0.34165834165834164	2926.9005847953217	-0.37571564885496184	0.2510734732824427	-0.04794847328244275	0.17691154422788605	-0.2338830584707646	-0.6101949025487257	1424.9084249084249	-1.0	-1.0	
1.6981535768950273E12	4.380434782608695	1.6521739130434783	10.945652173913043	3.0	0.34165834165834164	2926.9005847953217	-0.4786498091603053	-0.2983062977099237	-0.13728530534351144	0.17691154422788605	-0.2338830584707646	-0.6101949025487257	1424.9084249084249	-1.0	-1.0	
1.6981535769028394E12	4.380434782608695	1.6630434782608696	10.956521739130434	3.0	0.34165834165834164	2926.9005847953217	-0.6112833969465649	0.29985687022900764	-0.05856393129770992	0.17691154422788605	-0.24287856071964017	-0.5922038980509745	1424.1758241758241	-1.0	-1.0	
1.6981535769106514E12	4.4021739130434785	1.6630434782608696	10.92391304347826	3.0	0.3421023421023421	2923.1018818948737	-0.4652910305343511	0.43499522900763354	-0.008587786259541985	0.17541229385307347	-0.25487256371814093	-0.6026986506746627	1421.245421245421	-1.0	-1.0	
1.6981535769184634E12	4.423913043478261	1.6630434782608696	10.934782608695652	3.0	0.3421023421023421	2923.1018818948737	-0.32406965648854963	0.23509064885496184	-0.03530534351145038	0.17391304347826086	-0.24887556221889054	-0.5997001499250375	1419.047619047619	-1.0	-1.0	
1.6981535769262756E12	4.391304347826087	1.641304347826087	10.92391304347826	3.0	0.3421023421023421	2923.1018818948737	-0.4737595419847328	0.22041984732824427	-0.2168416030534351	0.17391304347826086	-0.2338830584707646	-0.6071964017991004	1419.047619047619	-1.0	-1.0	
1.6981535769340876E12	4.380434782608695	1.6195652173913042	10.92391304347826	3.0	0.3421023421023421	2923.1018818948737	-0.4389312977099237	0.7247137404580153	-0.3802480916030534	0.17391304347826086	-0.2338830584707646	-0.6071964017991004	1419.047619047619	-1.0	-1.0	
1.6981535769418997E12	4.391304347826087	1.6195652173913042	10.902173913043478	3.0	0.34165834165834164	2926.9005847953217	-0.7247137404580153	0.4494274809160305	-0.4518129770992366	0.17241379310344826	-0.239880059970015	-0.6041979010494752	1420.5128205128203	-1.0	-1.0	
1.6981535769497117E12	4.380434782608695	1.5978260869565217	10.92391304347826	3.0	0.34165834165834164	2926.9005847953217	-0.5065601145038168	0.40696564885496184	-0.6288167938931297	0.17691154422788605	-0.24887556221889054	-0.6131934032983508	1421.245421245421	-1.0	-1.0	
1.6981535769575237E12	4.369565217391305	1.6195652173913042	10.869565217391305	3.0	0.3421023421023421	2923.1018818948737	-0.35162213740458015	0.20968511450381677	-0.3331345419847328	0.17091454272863568	-0.24887556221889054	-0.5982008995502248	1421.9780219780218	-1.0	-1.0	
1.6981535769653357E12	4.3478260869565215	1.6195652173913042	10.91304347826087	3.0	0.34165834165834164	2926.9005847953217	-0.670324427480916	0.36736641221374045	-0.4541984732824427	0.16941529235382308	-0.25037481259370314	-0.6011994002998501	1421.9780219780218	-1.0	-1.0	
1.698153576973148E12	4.3478260869565215	1.608695652173913	10.902173913043478	3.0	0.34165834165834164	2926.9005847953217	-0.23795324427480916	0.3076097328244275	-0.2513120229007634	0.16941529235382308	-0.25037481259370314	-0.6011994002998501	1421.9780219780218	-1.0	-1.0	
1.69815357698096E12	4.369565217391305	1.5869565217391304	10.902173913043478	3.0	0.34165834165834164	2926.9005847953217	-0.3286020992366412	0.35436545801526714	-0.5090648854961832	0.17091454272863568	-0.25337331334332835	-0.6071964017991004	1422.7106227106226	-1.0	-1.0	
1.698153576988772E12	4.3478260869565215	1.5869565217391304	10.92391304347826	3.0	0.3421023421023421	2923.1018818948737	-0.0826574427480916	0.3076097328244275	-0.38263358778625955	0.16941529235382308	-0.24587706146926536	-0.6056971514242878	1421.9780219780218	-1.0	-1.0	
1.698153576996584E12	4.3478260869565215	1.608695652173913	10.902173913043478	3.0	0.34165834165834164	2926.9005847953217	-0.4156727099236641	0.48771469465648853	-0.5466364503816794	0.17391304347826086	-0.24437781109445278	-0.5982008995502248	1421.245421245421	-1.0	-1.0	
1.698153577004396E12	4.380434782608695	1.6304347826086956	10.92391304347826	3.0	0.34165834165834164	2926.9005847953217	-0.2904341603053435	0.10138358778625954	0.00846851145038168	0.1679160419790105	-0.24737631184407796	-0.6071964017991004	1421.245421245421	-1.0	-1.0	
1.6981535770122083E12	4.33695652173913	1.6195652173913042	10.989130434782608	3.0	0.3421023421023421	2923.1018818948737	-0.44095896946564883	0.14181774809160305	0.22471374045801526	0.1679160419790105	-0.24737631184407796	-0.6071964017991004	1424.1758241758241	-1.0	-1.0	
1.6981535770200203E12	4.3478260869565215	1.641304347826087	10.945652173913043	3.0	0.3421023421023421	2923.1018818948737	-0.0982824427480916	0.13800095419847327	0.08683206106870228	0.17391304347826086	-0.239880059970015	-0.608695652173913	1428.5714285714284	-1.0	-1.0	
1.6981535770278323E12	4.380434782608695	1.6630434782608696	10.945652173913043	3.0	0.3421023421023421	2923.1018818948737	-0.3239503816793893	0.15231393129770993	0.02552480916030534	0.17541229385307347	-0.239880059970015	-0.5937031484257871	1429.3040293040292	-1.0	-1.0	
1.6981535770356443E12	4.391304347826087	1.6739130434782608	10.934782608695652	3.0	0.3421023421023421	2923.1018818948737	-0.24439408396946563	0.12344942748091603	0.31440839694656486	0.15892053973013492	-0.27136431784107945	-0.5952023988005997	1430.03663003663	-1.0	-1.0	
1.6981535770434563E12	4.380434782608695	1.6521739130434783	10.967391304347826	3.0	0.34165834165834164	2926.9005847953217	-0.05737118320610687	0.12619274809160305	0.5849236641221374	0.1664167916041979	-0.23238380809595202	-0.6041979010494752	1431.5018315018315	-1.0	-1.0	
1.6981535770512683E12	4.380434782608695	1.6630434782608696	10.945652173913043	3.0	0.34165834165834164	2926.9005847953217	-0.33146469465648853	0.36032919847328243	0.289837786259542	0.1664167916041979	-0.23238380809595202	-0.6041979010494752	1435.164835164835	-1.0	-1.0	
1.6981535770590806E12	4.380434782608695	1.6630434782608696	10.91304347826087	3.0	0.34165834165834164	2926.9005847953217	-0.2077767175572519	0.23795324427480916	0.30260019083969464	0.17841079460269865	-0.24737631184407796	-0.5982008995502248	1441.0256410256409	-1.0	-1.0	
1.6981535770668926E12	4.380434782608695	1.6304347826086956	10.945652173913043	3.0	0.3421023421023421	2923.1018818948737	-0.49463263358778625	0.3148854961832061	0.32991412213740456	0.17241379310344826	-0.24137931034482757	-0.6041979010494752	1445.4212454212454	-1.0	-1.0	
1.6981535770747046E12	4.391304347826087	1.6195652173913042	10.891304347826086	3.0	0.3421023421023421	2923.1018818948737	-0.3371898854961832	-0.18857347328244273	0.02325858778625954	0.1634182908545727	-0.24737631184407796	-0.6041979010494752	1454.212454212454	-1.0	-1.0	
1.6981535770825166E12	4.391304347826087	1.6195652173913042	10.902173913043478	3.0	0.3421023421023421	2923.1018818948737	-0.3642652671755725	0.028983778625954196	0.2817270992366412	0.1679160419790105	-0.2383808095952024	-0.6146926536731634	1463.7362637362637	-1.0	-1.0	
1.6981535770903286E12	4.380434782608695	1.6195652173913042	10.902173913043478	3.0	0.34165834165834164	2926.9005847953217	-0.1321564885496183	0.06130725190839694	-0.1629293893129771	0.1679160419790105	-0.2383808095952024	-0.6146926536731634	1474.7252747252746	-1.0	-1.0	
1.6981535770981406E12	4.423913043478261	1.6195652173913042	10.880434782608695	3.0	0.34165834165834164	2926.9005847953217	-0.40541507633587787	0.32251908396946566	0.08218034351145038	0.18140929535232383	-0.23088455772113942	-0.6071964017991004	1490.10989010989	-1.0	-1.0	
1.698153577105953E12	4.391304347826087	1.608695652173913	10.869565217391305	3.0	0.3425463425463426	2919.3130265716136	-0.5405534351145038	0.47542938931297707	0.035663167938931296	0.17091454272863568	-0.25337331334332835	-0.5982008995502248	1503.2967032967033	-1.0	-1.0	
1.698153577113765E12	4.423913043478261	1.5978260869565217	10.91304347826087	3.0	0.3421023421023421	2923.1018818948737	-0.4450143129770992	0.7786259541984732	-0.2838740458015267	0.1679160419790105	-0.24437781109445278	-0.6116941529235382	1515.018315018315	-1.0	-1.0	
1.698153577121577E12	4.434782608695652	1.608695652173913	10.891304347826086	3.0	0.34165834165834164	2926.9005847953217	-0.2906727099236641	0.6823711832061068	0.009661259541984733	0.17091454272863568	-0.24287856071964017	-0.6011994002998501	1527.4725274725274	-1.0	-1.0	
1.698153577129389E12	4.445652173913043	1.5978260869565217	10.92391304347826	3.0	0.34165834165834164	2926.9005847953217	-0.04556297709923664	0.5892175572519084	-0.20467557251908397	0.17091454272863568	-0.24287856071964017	-0.6011994002998501	1537.7289377289376	-1.0	-1.0	
1.698153577137201E12	4.423913043478261	1.5978260869565217	10.902173913043478	3.0	0.34165834165834164	2926.9005847953217	-0.3536498091603053	0.6496898854961832	-0.3398139312977099	0.16941529235382308	-0.24737631184407796	-0.6101949025487257	1546.5201465201465	-1.0	-1.0	
1.6981535771450132E12	4.434782608695652	1.608695652173913	10.91304347826087	3.0	0.3421023421023421	2923.1018818948737	-0.5209923664122137	0.5588024809160305	-0.27791030534351147	0.17391304347826086	-0.2563718140929535	-0.6041979010494752	1549.4505494505493	-1.0	-1.0	
1.6981535771528252E12	4.413043478260869	1.5869565217391304	10.92391304347826	3.0	0.34165834165834164	2926.9005847953217	-0.3951574427480916	0.8493559160305343	-0.382037213740458	0.16941529235382308	-0.2578710644677661	-0.6056971514242878	1547.985347985348	-1.0	-1.0	
1.6981535771606372E12	4.4021739130434785	1.6195652173913042	10.92391304347826	3.0	0.34165834165834164	2926.9005847953217	0.03399332061068702	0.9508587786259541	-0.257037213740458	0.16941529235382308	-0.24287856071964017	-0.6101949025487257	1543.5897435897434	-1.0	-1.0	
1.6981535771684492E12	4.391304347826087	1.608695652173913	10.91304347826087	3.0	0.3421023421023421	2923.1018818948737	-0.2746898854961832	0.7757633587786259	-0.440243320610687	0.16941529235382308	-0.24287856071964017	-0.6101949025487257	1536.263736263736	-1.0	-1.0	
1.6981535771762612E12	4.3478260869565215	1.608695652173913	10.91304347826087	3.0	0.3421023421023421	2923.1018818948737	-0.2884064885496183	1.0314885496183206	-0.24045801526717556	0.17391304347826086	-0.24287856071964017	-0.6101949025487257	1528.2051282051282	-1.0	-1.0	
1.6981535771840732E12	4.326086956521739	1.5869565217391304	10.92391304347826	3.0	0.34165834165834164	2926.9005847953217	-0.026240458015267174	0.762881679389313	-0.29866412213740456	0.17241379310344826	-0.2368815592203898	-0.6026986506746627	1516.4835164835163	-1.0	-1.0	
1.6981535771918855E12	4.3478260869565215	1.5978260869565217	10.945652173913043	3.0	0.34165834165834164	2926.9005847953217	-0.22495229007633588	0.3139312977099237	-0.29520515267175573	0.1679160419790105	-0.24137931034482757	-0.6116941529235382	1506.227106227106	-1.0	-1.0	
1.6981535771996975E12	4.358695652173913	1.608695652173913	10.91304347826087	3.0	0.34165834165834164	2926.9005847953217	-0.13144083969465647	0.3690362595419847	-0.06059160305343511	0.1679160419790105	-0.24137931034482757	-0.6116941529235382	1495.2380952380952	-1.0	-1.0	
1.6981535772075095E12	4.3478260869565215	1.608695652173913	10.934782608695652	3.0	0.3421023421023421	2923.1018818948737	0.053912213740458015	0.19739980916030533	0.2169608778625954	0.1664167916041979	-0.24137931034482757	-0.6026986506746627	1487.9120879120878	-1.0	-1.0	
1.6981535772153215E12	4.33695652173913	1.5869565217391304	10.902173913043478	3.0	0.34165834165834164	2926.9005847953217	-0.006798664122137405	0.044370229007633585	-0.040553435114503815	0.16941529235382308	-0.2518740629685157	-0.5967016491754122	1478.3882783882782	-1.0	-1.0	
1.6981535772231335E12	4.304347826086956	1.5869565217391304	10.92391304347826	3.0	0.34165834165834164	2926.9005847953217	0.08528148854961831	-0.031369274809160304	0.17688454198473283	0.17691154422788605	-0.2353823088455772	-0.608695652173913	1469.5970695970695	-1.0	-1.0	
1.6981535772309456E12	4.315217391304348	1.5869565217391304	10.934782608695652	3.0	0.3421023421023421	2923.1018818948737	-0.038287213740458015	0.10865935114503816	0.11820133587786259	0.17691154422788605	-0.24887556221889054	-0.6056971514242878	1461.5384615384614	-1.0	-1.0	
1.6981535772387578E12	4.326086956521739	1.608695652173913	10.91304347826087	3.0	0.34165834165834164	2926.9005847953217	-0.15911259541984732	-0.19620706106870228	0.1815362595419847	0.17691154422788605	-0.24887556221889054	-0.6056971514242878	1455.6776556776556	-1.0	-1.0	
1.6981535772465698E12	4.315217391304348	1.5978260869565217	10.902173913043478	3.0	0.34165834165834164	2926.9005847953217	0.011450381679389313	-0.27123091603053434	0.34935591603053434	0.17391304347826086	-0.24137931034482757	-0.6011994002998501	1452.7472527472526	-1.0	-1.0	
1.6981535772543818E12	4.326086956521739	1.608695652173913	10.91304347826087	3.0	0.3412143412143412	2930.7091737150295	-0.09219942748091603	-0.3006917938931298	0.27218511450381677	0.1829085457271364	-0.2593703148425787	-0.6026986506746627	1449.8168498168498	-1.0	-1.0	
1.6981535772621938E12	4.358695652173913	1.6195652173913042	10.934782608695652	3.0	0.34165834165834164	2926.9005847953217	0.018010496183206107	-0.2682490458015267	0.21159351145038166	0.17391304347826086	-0.2623688155922039	-0.5997001499250375	1446.8864468864467	-1.0	-1.0	
1.6981535772700059E12	4.369565217391305	1.6304347826086956	10.91304347826087	3.0	0.34165834165834164	2926.9005847953217	0.15744274809160305	-0.11426526717557252	0.2280534351145038	0.17241379310344826	-0.24587706146926536	-0.6056971514242878	1446.8864468864467	-1.0	-1.0	
1.6981535772778179E12	4.391304347826087	1.6304347826086956	10.92391304347826	3.0	0.34165834165834164	2926.9005847953217	-0.14706583969465647	-0.006679389312977099	0.10567748091603053	0.17241379310344826	-0.24587706146926536	-0.6056971514242878	1443.956043956044	-1.0	-1.0	
1.6981535772856301E12	4.369565217391305	1.6304347826086956	10.92391304347826	3.0	0.34165834165834164	2926.9005847953217	-0.11235687022900763	0.08659351145038167	0.1340648854961832	0.18590704647676162	-0.22788605697151423	-0.5997001499250375	1443.2234432234432	-1.0	-1.0	
1.6981535772934421E12	4.369565217391305	1.6521739130434783	10.956521739130434	3.0	0.34165834165834164	2926.9005847953217	0.013000954198473282	0.2859017175572519	-0.00512881679389313	0.17691154422788605	-0.24587706146926536	-0.6011994002998501	1440.2930402930401	-1.0	-1.0	
1.6981535773012542E12	4.380434782608695	1.6195652173913042	10.934782608695652	3.0	0.34165834165834164	2926.9005847953217	-0.26276240458015265	0.1317986641221374	-0.051645992366412215	0.1664167916041979	-0.2563718140929535	-0.6041979010494752	1438.8278388278388	-1.0	-1.0	
1.6981535773090662E12	4.358695652173913	1.6195652173913042	10.945652173913043	3.0	0.34165834165834164	2926.9005847953217	-0.28924141221374045	0.16412213740458015	0.1297709923664122	0.17241379310344826	-0.2383808095952024	-0.5937031484257871	1438.8278388278388	-1.0	-1.0	
1.6981535773168782E12	4.358695652173913	1.6304347826086956	10.92391304347826	3.0	0.34165834165834164	2926.9005847953217	-0.4380963740458015	0.24296278625954199	0.17306774809160305	0.17241379310344826	-0.2383808095952024	-0.5937031484257871	1441.7582417582416	-1.0	-1.0	
1.6981535773246904E12	4.3478260869565215	1.6304347826086956	10.934782608695652	3.0	0.34165834165834164	2926.9005847953217	-0.3866889312977099	0.44406011450381677	-0.013716603053435115	0.17541229385307347	-0.2338830584707646	-0.6041979010494752	1448.3516483516482	-1.0	-1.0	
1.6981535773325024E12	4.369565217391305	1.6195652173913042	10.934782608695652	3.0	0.34165834165834164	2926.9005847953217	-0.35042938931297707	0.4114980916030534	-0.2571564885496183	0.1679160419790105	-0.2383808095952024	-0.6056971514242878	1454.212454212454	-1.0	-1.0	
1.6981535773403145E12	4.369565217391305	1.608695652173913	10.91304347826087	3.0	0.34165834165834164	2926.9005847953217	-0.25536736641221375	0.08683206106870228	-0.2411736641221374	0.16941529235382308	-0.24887556221889054	-0.5997001499250375	1459.3406593406592	-1.0	-1.0	
1.6981535773481265E12	4.369565217391305	1.6304347826086956	10.91304347826087	3.0	0.34165834165834164	2926.9005847953217	-0.1900047709923664	0.5001192748091603	-0.1651956106870229	0.14692653673163417	-0.24887556221889054	-0.5997001499250375	1463.003663003663	-1.0	-1.0	
